loggingTime(txt),loggingSample(N),locationTimestamp_since1970(s),locationLatitude(WGS84),locationLongitude(WGS84),locationAltitude(m),locationSpeed(m/s),locationSpeedAccuracy(m/s),locationCourse(°),locationCourseAccuracy(°),locationVerticalAccuracy(m),locationHorizontalAccuracy(m),locationFloor(Z),locationHeadingTimestamp_since1970(s),locationHeadingX(µT),locationHeadingY(µT),locationHeadingZ(µT),locationTrueHeading(°),locationMagneticHeading(°),locationHeadingAccuracy(°),accelerometerTimestamp_sinceReboot(s),accelerometerAccelerationX(G),accelerometerAccelerationY(G),accelerometerAccelerationZ(G),gyroTimestamp_sinceReboot(s),gyroRotationX(rad/s),gyroRotationY(rad/s),gyroRotationZ(rad/s),magnetometerTimestamp_sinceReboot(s),magnetometerX(µT),magnetometerY(µT),magnetometerZ(µT),motionTimestamp_sinceReboot(s),motionYaw(rad),motionRoll(rad),motionPitch(rad),motionRotationRateX(rad/s),motionRotationRateY(rad/s),motionRotationRateZ(rad/s),motionUserAccelerationX(G),motionUserAccelerationY(G),motionUserAccelerationZ(G),motionAttitudeReferenceFrame(txt),motionQuaternionX(R),motionQuaternionY(R),motionQuaternionZ(R),motionQuaternionW(R),motionGravityX(G),motionGravityY(G),motionGravityZ(G),motionMagneticFieldX(µT),motionMagneticFieldY(µT),motionMagneticFieldZ(µT),motionHeading(°),motionMagneticFieldCalibrationAccuracy(Z),activityTimestamp_sinceReboot(s),activity(txt),activityActivityConfidence(Z),activityActivityStartDate(txt),pedometerStartDate(txt),pedometerNumberofSteps(N),pedometerAverageActivePace(s/m),pedometerCurrentPace(s/m),pedometerCurrentCadence(steps/s),pedometerDistance(m),pedometerFloorAscended(N),pedometerFloorDescended(N),pedometerEndDate(txt),altimeterTimestamp_sinceReboot(s),altimeterReset(bool),altimeterRelativeAltitude(m),altimeterPressure(kPa),IP_Timestamp_since1970(s),IP_en0(txt),IP_pdp_ip0(txt),deviceID(txt),deviceOrientationTimeStamp_since1970(s),deviceOrientation(Z),batteryTimeStamp_since1970(s),batteryState(R),batteryLevel(Z),label(N)
2025-04-20T10:22:12.791-04:00,1,1745158931.99985,40.31643103477798,-74.75844873366114,65.45305,0.02085881,0.4038933,-1,-1,3,6.452271117457066,-9999,1745158932.789306,20.09292602539062,-29.10525512695312,-36.30410766601562,199.8021087646484,211.9937591552734,11.12911510467529,112249.4599640417,0.134979248046875,-0.3006744384765625,-0.8245086669921875,112249.4349200417,-0.007675496395677328,0.3067668676376343,-0.2019301950931549,112249.4336360417,468.0559997558594,-145.9455413818359,-405.9112243652344,112249.4349200417,0.1949459536701847,0.2214777750099975,0.2796122259737705,-0.005140680819749832,0.3056232333183289,-0.2010324746370316,-0.1027111411094666,-0.02316552400588989,0.01648139953613281,XArbitraryCorrectedZVertical,0.1271901286601489,0.1223933690839671,0.1111058441510418,0.9780071806622523,0.211140051484108,-0.2759829461574554,-0.9376850724220276,19.60989379882812,-29.40507507324219,-36.113525390625,-1,2,112247.9873875,unknown,2,2025-04-20T10:22:11.301-04:00,null,0,0,0,0,0,0,0,null,112247.571488,0,0,101.6977,0,,,my_iOS_device,0,5,1745158932.768089,1,0.6,0
2025-04-20T10:22:12.801-04:00,2,1745158931.99985,40.31643103477798,-74.75844873366114,65.45305,0.02085881,0.4038933,-1,-1,3,6.452271117457066,-9999,1745158932.789306,20.09292602539062,-29.10525512695312,-36.30410766601562,199.8021087646484,211.9937591552734,11.12911510467529,112249.4900170417,0.1910552978515625,-0.2796173095703125,-0.865753173828125,112249.4649730417,-0.2593732476234436,0.09432677179574966,-0.3238007128238678,112249.4638730417,468.6772766113281,-145.8619537353516,-406.0752258300781,112249.4699810417,0.1867019214132259,0.2307904230057108,0.2724544892414272,-0.3055643439292908,0.04168055206537247,-0.3483434915542603,-0.06669913232326508,-0.03324136137962341,0.1019906401634216,XArbitraryCorrectedZVertical,0.1236823902490031,0.1261509340354884,0.1073061885935604,0.9784038124637466,0.2203093320131302,-0.2690961956977844,-0.9375771880149841,20.21011352539062,-29.30532836914062,-36.24118041992188,-1,2,112247.9873875,unknown,2,2025-04-20T10:22:11.301-04:00,null,0,0,0,0,0,0,0,null,112247.571488,0,0,101.6977,0,,,my_iOS_device,0,5,1745158932.768089,1,0.6,0
2025-04-20T10:22:12.829-04:00,3,1745158931.99985,40.31643103477798,-74.75844873366114,65.45305,0.02085881,0.4038933,-1,-1,3,6.452271117457066,-9999,1745158932.809388,20.265380859375,-28.63063049316406,-36.69955444335938,200.2289733886719,212.4206237792969,11.12906455993652,112249.5200690417,0.1815948486328125,-0.262786865234375,-1.10711669921875,112249.4950250417,-0.5056453347206116,-0.2418770790100098,-0.4208175241947174,112249.4941050417,468.6557006835938,-145.1082000732422,-406.6377563476562,112249.5050430417,0.1764786092227331,0.2284487434971511,0.2542864068217783,-0.4916580617427826,-0.2550619840621948,-0.4421144425868988,-0.01967573165893555,-0.01905971765518188,0.03241902589797974,XArbitraryCorrectedZVertical,0.1155214627058208,0.123717802214474,0.1012399415170658,0.9803566156270845,0.2191843539476395,-0.2515548169612885,-0.9426974058151245,20.39825439453125,-28.44064331054688,-36.710205078125,-1,2,112247.9873875,unknown,2,2025-04-20T10:22:11.301-04:00,null,0,0,0,0,0,0,0,null,112247.571488,0,0,101.6977,1745158932.803586,0.0.0.0,100.94.214.186,my_iOS_device,0,5,1745158932.768089,1,0.6,0
2025-04-20T10:22:12.859-04:00,4,1745158931.99985,40.31643103477798,-74.75844873366114,65.45305,0.02085881,0.4038933,-1,-1,3,6.452271117457066,-9999,1745158932.849513,20.597900390625,-27.71986389160156,-37.24539184570312,201.3209686279297,213.5126190185547,11.12895679473877,112249.5501220417,0.1365203857421875,-0.2680206298828125,-1.171737670898438,112249.5250780417,-0.1948416531085968,-0.08101149648427963,-0.5115053653717041,112249.5243380417,469.0328674316406,-144.3117523193359,-407.1795654296875,112249.5401050417,0.1608232057112518,0.2280021733863324,0.2427691951232352,0.12579146027565,-0.04091835767030716,-0.5655484795570374,-0.06554935872554779,-0.03043662011623383,-0.2469347715377808,XArbitraryCorrectedZVertical,0.1108419476208087,0.1222155976258808,0.09294601217572404,0.9819054779838551,0.2194036990404129,-0.2403915375471115,-0.945554792881012,20.597900390625,-27.71986389160156,-37.24539184570312,-1,2,112247.9873875,unknown,2,2025-04-20T10:22:11.301-04:00,null,0,0,0,0,0,0,0,null,112247.571488,0,0,101.6977,1745158932.803586,0.0.0.0,100.94.214.186,my_iOS_device,0,5,1745158932.768089,1,0.6,0
2025-04-20T10:22:12.889-04:00,5,1745158931.99985,40.31643103477798,-74.75844873366114,65.45305,0.02085881,0.4038933,-1,-1,3,6.452271117457066,-9999,1745158932.869674,20.83248901367188,-27.41622924804688,-36.842529296875,202.0797119140625,214.2713623046875,11.1288948059082,112249.5801750417,0.154937744140625,-0.24127197265625,-1.190093994140625,112249.5551310417,0.4555198550224304,-0.2067915201187134,-0.6289776563644409,112249.5545770417,469.3056640625,-143.9903564453125,-406.606689453125,112249.5751660417,0.1343396737238252,0.2273222985399982,0.2561585059420704,0.990154504776001,-0.2761927545070648,-0.6846367120742798,-0.08335703611373901,-2.110004425048828e-05,-0.2524325847625732,XArbitraryCorrectedZVertical,0.1190689266564401,0.1207517209715124,0.08059399151101442,0.982214936365591,0.2180158048868179,-0.2533662915229797,-0.9424832463264465,21.01406860351562,-27.79351806640625,-36.6282958984375,-1,2,112247.9873875,unknown,2,2025-04-20T10:22:11.301-04:00,null,0,0,0,0,0,0,0,null,112247.571488,0,0,101.6977,1745158932.803586,0.0.0.0,100.94.214.186,my_iOS_device,0,5,1745158932.768089,1,0.6,0
2025-04-20T10:22:12.923-04:00,6,1745158931.99985,40.31643103477798,-74.75844873366114,65.45305,0.02085881,0.4038933,-1,-1,3,6.452271117457066,-9999,1745158932.909575,21.2821044921875,-28.18195343017578,-36.24777221679688,203.9597625732422,216.1514129638672,11.12876415252686,112249.6102280417,0.2942962646484375,-0.202362060546875,-1.000732421875,112249.5851840417,1.177684664726257,-0.1658422350883484,-0.7018049955368042,112249.5848150417,469.5362854003906,-144.7342376708984,-406.1726684570312,112249.5751660417,0.1343396737238252,0.2273222985399982,0.2561585059420704,0.990154504776001,-0.2761927545070648,-0.6846367120742798,-0.08335703611373901,-2.110004425048828e-05,-0.2524325847625732,XArbitraryCorrectedZVertical,0.1190689266564401,0.1207517209715124,0.08059399151101442,0.982214936365591,0.2180158048868179,-0.2533662915229797,-0.9424832463264465,21.01406860351562,-27.79351806640625,-36.6282958984375,-1,2,112247.9873875,unknown,2,2025-04-20T10:22:11.301-04:00,null,0,0,0,0,0,0,0,null,112247.571488,0,0,101.6977,1745158932.803586,0.0.0.0,100.94.214.186,my_iOS_device,0,5,1745158932.768089,1,0.6,0
2025-04-20T10:22:12.949-04:00,7,1745158931.99985,40.31643103477798,-74.75844873366114,65.45305,0.02085881,0.4038933,-1,-1,3,6.452271117457066,-9999,1745158932.92957,21.68258666992188,-28.77794647216797,-35.28811645507812,204.8157958984375,217.0074462890625,11.12868785858154,112249.6402797917,0.3475341796875,-0.180206298828125,-0.8008575439453125,112249.6152357917,1.229171395301819,0.1338374316692352,-0.5774335265159607,112249.6150517917,470.1153564453125,-145.5409545898438,-404.9234008789062,112249.6102280417,0.100227479945848,0.2334241500872902,0.2923612587179587,1.277338266372681,0.07734844833612442,-0.6150102615356445,0.07280148565769196,0.08585211634635925,-0.06913560628890991,XArbitraryCorrectedZVertical,0.1387170531604504,0.1223076102031957,0.0661618460595,0.9805207318929396,0.2214947491884232,-0.2882140874862671,-0.9315968751907349,21.59609985351562,-28.41770172119141,-35.71591186523438,-1,2,112247.9873875,unknown,2,2025-04-20T10:22:11.301-04:00,null,0,0,0,0,0,0,0,null,112247.571488,0,0,101.6977,1745158932.803586,0.0.0.0,100.94.214.186,my_iOS_device,0,5,1745158932.768089,1,0.6,0
2025-04-20T10:22:12.979-04:00,8,1745158931.99985,40.31643103477798,-74.75844873366114,65.45305,0.02085881,0.4038933,-1,-1,3,6.452271117457066,-9999,1745158932.969665,22.72454833984375,-29.72683715820312,-34.17779541015625,205.7958526611328,217.9875030517578,11.12852764129639,112249.6703327917,0.332305908203125,-0.1935577392578125,-0.7156219482421875,112249.6452887917,0.6604034900665283,0.2443926930427551,-0.3289861381053925,112249.6452887917,470.878662109375,-146.2953186035156,-404.01513671875,112249.6452887917,0.07451083615800901,0.2488076012470367,0.3229235910348936,0.6629367470741272,0.2432481795549393,-0.3280896842479706,0.1140138506889343,0.1371341645717621,0.1182525157928467,XArbitraryCorrectedZVertical,0.1548465004190933,0.1283258470317655,0.05641215589483554,0.9779430347647747,0.2335202842950821,-0.3173403739929199,-0.9191100597381592,22.39498901367188,-29.55673217773438,-34.29803466796875,-1,2,112247.9873875,unknown,2,2025-04-20T10:22:11.301-04:00,null,0,0,0,0,0,0,0,null,112247.571488,0,0,101.6977,1745158932.803586,0.0.0.0,100.94.214.186,my_iOS_device,0,5,1745158932.768089,1,0.6,0
2025-04-20T10:22:13.009-04:00,9,1745158931.99985,40.31643103477798,-74.75844873366114,65.45305,0.02085881,0.4038933,-1,-1,3,6.452271117457066,-9999,1745158932.989908,23.13693237304688,-29.86907958984375,-33.60409545898438,205.9185791015625,218.1102294921875,11.12845420837402,112249.7003857917,0.3281097412109375,-0.2718658447265625,-0.7344970703125,112249.6753417917,0.07252293825149536,0.4523762464523315,-0.1036670058965683,112249.6755207917,471.6526489257812,-146.4951477050781,-403.3533325195312,112249.6803507917,0.06417295326273302,0.2640056592834345,0.3309753557264825,0.02477923780679703,0.5255151391029358,-0.06232069060206413,0.06420263648033142,0.0973198413848877,0.2016855478286743,XArbitraryCorrectedZVertical,0.1590513835388448,0.1349936585385004,0.05303842487179208,0.976558307720503,0.2467866837978363,-0.3249655961990356,-0.9129587411880493,23.13693237304688,-29.86907958984375,-33.60409545898438,-1,2,112247.9873875,unknown,2,2025-04-20T10:22:11.301-04:00,null,0,0,0,0,0,0,0,null,112247.571488,0,0,101.6977,1745158932.803586,0.0.0.0,100.94.214.186,my_iOS_device,0,5,1745158932.768089,1,0.6,0
2025-04-20T10:22:13.045-04:00,10,1745158931.99985,40.31643103477798,-74.75844873366114,65.45305,0.02085881,0.4038933,-1,-1,3,6.452271117457066,-9999,1745158933.029803,23.67852783203125,-29.82138824462891,-33.35494995117188,205.6939392089844,217.8855895996094,11.12832832336426,112249.7304387917,0.3806610107421875,-0.27569580078125,-0.758087158203125,112249.7053947917,-0.045643649995327,0.471125453710556,0.03801369294524193,112249.7057557917,472.1302490234375,-146.3232269287109,-403.22412109375,112249.7154117917,0.06462265148889142,0.281806589367418,0.3301310100347041,0.01892907172441483,0.2485484778881073,0.07192312926054001,0.06585919857025146,0.03766801953315735,0.1796500682830811,XArbitraryCorrectedZVertical,0.1581283037191829,0.143712085885207,0.05461499496408462,0.97537660780799,0.2630744576454163,-0.3241669535636902,-0.9086845517158508,23.67852783203125,-29.82138824462891,-33.35494995117188,-1,2,112247.9873875,unknown,2,2025-04-20T10:22:11.301-04:00,null,0,0,0,0,0,0,0,null,112247.571488,0,0,101.6977,1745158932.803586,0.0.0.0,100.94.214.186,my_iOS_device,0,5,1745158932.768089,1,0.6,0
2025-04-20T10:22:13.070-04:00,11,1745158931.99985,40.31643103477798,-74.75844873366114,65.45305,0.02085881,0.4038933,-1,-1,3,6.452271117457066,-9999,1745158933.049806,23.57632446289062,-29.90674591064453,-33.33016967773438,205.4782409667969,217.6698913574219,11.12827205657959,112249.7604907917,0.248809814453125,-0.330657958984375,-0.853851318359375,112249.7354467917,0.1505474299192429,-0.1103486120700836,0.2695310711860657,112249.7359917917,471.9303588867188,-146.5188903808594,-403.2067260742188,112249.7504737917,0.07197368310600738,0.2791595525815664,0.3358064872141296,0.02165013737976551,0.1080397367477417,0.3652913272380829,0.03284215927124023,0.01156815886497498,0.06752187013626099,XArbitraryCorrectedZVertical,0.1604477590068904,0.1430358649780234,0.05836333639151322,0.9748799828693866,0.2601570785045624,-0.3295307159423828,-0.9075945019721985,23.51434326171875,-30.03253936767578,-33.21078491210938,-1,2,112247.9873875,unknown,2,2025-04-20T10:22:11.301-04:00,null,0,0,0,0,0,0,0,null,112247.571488,0,0,101.6977,1745158932.803586,0.0.0.0,100.94.214.186,my_iOS_device,0,5,1745158932.768089,1,0.6,0
2025-04-20T10:22:13.101-04:00,12,1745158932.999838,40.31642943357016,-74.75843761427339,65.41155,0.03937969,1.017339,-1,-1,3,6.454845860311716,-9999,1745158933.089857,23.3505859375,-30.17003631591797,-33.1474609375,204.6569366455078,216.8485870361328,11.12816715240479,112249.7905437917,0.1279144287109375,-0.43597412109375,-0.9125518798828125,112249.7654997917,-0.0324692614376545,0.2179645597934723,0.3474242687225342,112249.7662257917,471.8858947753906,-146.8570861816406,-402.8430786132812,112249.7855347917,0.08285027182768435,0.2845671151627745,0.337835427935658,-0.03958383947610855,0.4496721923351288,0.1363954544067383,-0.1219133138656616,-0.06244465708732605,0.01606547832489014,XArbitraryCorrectedZVertical,0.1604849708969508,0.146557660359226,0.06423033891474521,0.9739814075064926,0.2648728787899017,-0.3314456641674042,-0.9055308699607849,23.49154663085938,-30.28870391845703,-33.064697265625,-1,2,112247.9873875,unknown,2,2025-04-20T10:22:11.301-04:00,null,0,0,0,0,0,0,0,null,112247.571488,0,0,101.6977,1745158932.803586,0.0.0.0,100.94.214.186,my_iOS_device,0,5,1745158932.768089,1,0.6,0
2025-04-20T10:22:13.133-04:00,13,1745158932.999838,40.31642943357016,-74.75843761427339,65.41155,0.03937969,1.017339,-1,-1,3,6.454845860311716,-9999,1745158933.129983,23.81085205078125,-29.98841094970703,-32.55691528320312,204.5265655517578,216.7182159423828,11.12806510925293,112249.8205967917,0.1447601318359375,-0.420257568359375,-0.8417510986328125,112249.7955527917,-0.04247875139117241,0.5383127331733704,0.01902455650269985,112249.7964647917,471.9338989257812,-146.7749938964844,-402.8563842773438,112249.7855347917,0.08285027182768435,0.2845671151627745,0.337835427935658,-0.03958383947610855,0.4496721923351288,0.1363954544067383,-0.1219133138656616,-0.06244465708732605,0.01606547832489014,XArbitraryCorrectedZVertical,0.1604849708969508,0.146557660359226,0.06423033891474521,0.9739814075064926,0.2648728787899017,-0.3314456641674042,-0.9055308699607849,23.49154663085938,-30.28870391845703,-33.064697265625,-1,2,112247.9873875,unknown,2,2025-04-20T10:22:11.301-04:00,null,0,0,0,0,0,0,0,null,112247.571488,0,0,101.6977,1745158932.803586,0.0.0.0,100.94.214.186,my_iOS_device,0,5,1745158932.768089,1,0.6,0
2025-04-20T10:22:13.165-04:00,14,1745158932.999838,40.31642943357016,-74.75843761427339,65.41155,0.03937969,1.017339,-1,-1,3,6.454845860311716,-9999,1745158933.149923,24.27182006835938,-29.84856414794922,-32.79550170898438,204.7742004394531,216.9658508300781,11.12801647186279,112249.8506497917,0.2424774169921875,-0.3672637939453125,-0.85113525390625,112249.8256057917,-0.1857733279466629,0.2857753038406372,-0.2509813606739044,112249.8267037917,472.5779113769531,-146.4775543212891,-402.5015258789062,112249.8205967917,0.08143617800684831,0.3016349170090198,0.3349710445000503,-0.1469564735889435,0.341369241476059,-0.2159443944692612,-0.1358097493648529,-0.09151566028594971,0.06003010272979736,XArbitraryCorrectedZVertical,0.1586441893125,0.1547301312197613,0.06470746576067565,0.9729868955969088,0.280569851398468,-0.3287418186664581,-0.9017812013626099,23.81085205078125,-29.98841094970703,-32.55691528320312,-1,2,112247.9873875,unknown,2,2025-04-20T10:22:11.301-04:00,null,0,0,0,0,0,0,0,null,112247.571488,0,0,101.6977,1745158932.803586,0.0.0.0,100.94.214.186,my_iOS_device,0,5,1745158932.768089,1,0.6,0
2025-04-20T10:22:13.190-04:00,15,1745158932.999838,40.31642943357016,-74.75843761427339,65.41155,0.03937969,1.017339,-1,-1,3,6.454845860311716,-9999,1745158933.169988,24.53475952148438,-29.51711273193359,-32.75054931640625,205.1107940673828,217.3024444580078,11.12796974182129,112249.8807027917,0.3113555908203125,-0.2934722900390625,-0.8865509033203125,112249.8556587917,-0.3137935996055603,0.1055072546005249,-0.3608205020427704,112249.8569417917,472.9644775390625,-146.0283660888672,-402.61767578125,112249.8556587917,0.07290561450632607,0.311248191637272,0.323543551086355,-0.311267077922821,0.1043590232729912,-0.3599295020103455,-0.04788002371788025,-0.04933544993400574,0.05142456293106079,XArbitraryCorrectedZVertical,0.1534398450122849,0.1586704571807182,0.06048249691866751,0.9734585951557554,0.290357381105423,-0.3179282546043396,-0.9025598168373108,24.53475952148438,-29.51711273193359,-32.75054931640625,-1,2,112247.9873875,unknown,2,2025-04-20T10:22:11.301-04:00,null,0,0,0,0,0,0,0,null,112247.571488,0,0,101.6977,1745158932.803586,0.0.0.0,100.94.214.186,my_iOS_device,0,5,1745158932.768089,1,0.6,0
2025-04-20T10:22:13.220-04:00,16,1745158932.999838,40.31642943357016,-74.75843761427339,65.41155,0.03937969,1.017339,-1,-1,3,6.454845860311716,-9999,1745158933.210048,24.864990234375,-28.73162078857422,-33.372802734375,205.8126220703125,218.0042724609375,11.12787818908691,112249.9107547917,0.3536224365234375,-0.2530975341796875,-0.9623260498046875,112249.8857107917,-0.3230281174182892,-0.1993703693151474,-0.3133991956710815,112249.8871807917,473.3510131835938,-145.4639282226562,-403.0023498535156,112249.8907197917,0.06434806573151323,0.3115693682571566,0.3089200697557027,-0.2954825758934021,-0.2878377139568329,-0.2854137718677521,0.03336754441261292,0.03562799096107483,0.009212195873260498,XArbitraryCorrectedZVertical,0.1469731720573115,0.1581179063792329,0.0552583555661507,0.974855920764481,0.2920413613319397,-0.3040300011634827,-0.9067952036857605,24.93157958984375,-28.93425750732422,-33.15707397460938,-1,2,112247.9873875,unknown,2,2025-04-20T10:22:11.301-04:00,null,0,0,0,0,0,0,0,null,112247.571488,0,0,101.6977,1745158932.803586,0.0.0.0,100.94.214.186,my_iOS_device,0,5,1745158932.768089,1,0.6,0
2025-04-20T10:22:13.250-04:00,17,1745158932.999838,40.31642943357016,-74.75843761427339,65.41155,0.03937969,1.017339,-1,-1,3,6.454845860311716,-9999,1745158933.230069,24.53121948242188,-28.54054260253906,-33.46588134765625,206.1447448730469,218.3363952636719,11.12783527374268,112249.9408077917,0.299530029296875,-0.259246826171875,-0.9529571533203125,112249.9157637917,-0.06282343715429306,-0.8744540214538574,-0.1653841733932495,112249.9174237917,472.8792724609375,-145.1294555664062,-403.3267822265625,112249.9257817917,0.05877847464663904,0.2885658664487242,0.3023159851478681,0.05944474786520004,-1.113358616828918,-0.1466093063354492,0.06571510434150696,0.04497018456459045,-0.07589602470397949,XArbitraryCorrectedZVertical,0.1447771208614167,0.1464608733859517,0.05038999796823052,0.9772663986605176,0.2716719508171082,-0.2977319657802582,-0.915177583694458,24.23043823242188,-28.66950988769531,-33.936279296875,-1,2,112247.9873875,unknown,2,2025-04-20T10:22:11.301-04:00,null,0,0,0,0,0,0,0,null,112247.571488,0,0,101.6977,1745158932.803586,0.0.0.0,100.94.214.186,my_iOS_device,0,5,1745158932.768089,1,0.6,0
2025-04-20T10:22:13.284-04:00,18,1745158932.999838,40.31642943357016,-74.75843761427339,65.41155,0.03937969,1.017339,-1,-1,3,6.454845860311716,-9999,1745158933.270246,22.75979614257812,-28.50967407226562,-34.88455200195312,206.9793548583984,219.1710052490234,11.12776851654053,112249.9708607917,0.302276611328125,-0.2825927734375,-0.860443115234375,112249.9458167917,0.1196150779724121,-1.631805062294006,-0.1346001625061035,112249.9476637917,471.5889892578125,-145.1605377197266,-404.490478515625,112249.9608437917,0.0535891826327357,0.2365798842057144,0.3040672654524814,-0.05025977268815041,-1.766810655593872,-0.07836578786373138,0.06317675113677979,0.02256321907043457,0.09681540727615356,XArbitraryCorrectedZVertical,0.1472110014178811,0.1206402835321287,0.04416397115935835,0.980726467178852,0.2236273884773254,-0.2994033694267273,-0.9275496602058411,22.75979614257812,-28.50967407226562,-34.88455200195312,-1,2,112247.9873875,unknown,2,2025-04-20T10:22:11.301-04:00,null,0,0,0,0,0,0,0,null,112247.571488,0,0,101.6977,1745158932.803586,0.0.0.0,100.94.214.186,my_iOS_device,0,5,1745158932.768089,1,0.6,0
2025-04-20T10:22:13.310-04:00,19,1745158932.999838,40.31642943357016,-74.75843761427339,65.41155,0.03937969,1.017339,-1,-1,3,6.454845860311716,-9999,1745158933.290344,21.497802734375,-28.40516662597656,-35.66769409179688,207.2094268798828,219.4010772705078,11.12773418426514,112250.0009137917,0.167755126953125,-0.3198394775390625,-1.079086303710938,112249.9758697917,-0.1278711408376694,-1.354526877403259,0.06466634571552277,112249.9779037917,469.6273193359375,-145.0193481445312,-405.6519470214844,112249.9959047917,0.05699524623459992,0.1909885629804643,0.3025708181035249,0.08911086618900299,-0.7928919196128845,0.162536233663559,0.060660719871521,-0.004179239273071289,-0.1693812608718872,XArbitraryCorrectedZVertical,0.1472755892119401,0.0984965709921901,0.04240412133400513,0.983265129648042,0.1812063008546829,-0.2979752123355865,-0.9372166395187378,20.98480224609375,-28.40092468261719,-36.21832275390625,-1,2,112247.9873875,unknown,2,2025-04-20T10:22:11.301-04:00,null,0,0,0,0,0,0,0,null,112247.571488,0,0,101.6977,1745158932.803586,0.0.0.0,100.94.214.186,my_iOS_device,0,5,1745158932.768089,1,0.6,0
2025-04-20T10:22:13.340-04:00,20,1745158932.999838,40.31642943357016,-74.75843761427339,65.41155,0.03937969,1.017339,-1,-1,3,6.454845860311716,-9999,1745158933.330371,19.9224853515625,-28.58001708984375,-36.65621948242188,207.3009948730469,219.4926452636719,11.1276388168335,112250.0309667917,0.0556640625,-0.31207275390625,-0.8606414794921875,112250.0059227917,0.1261869668960571,-0.7969309687614441,0.09510201215744019,112250.0081407917,468.5939331054688,-145.2576293945312,-406.4143676757812,112249.9959047917,0.05699524623459992,0.1909885629804643,0.3025708181035249,0.08911086618900299,-0.7928919196128845,0.162536233663559,0.060660719871521,-0.004179239273071289,-0.1693812608718872,XArbitraryCorrectedZVertical,0.1472755892119401,0.0984965709921901,0.04240412133400513,0.983265129648042,0.1812063008546829,-0.2979752123355865,-0.9372166395187378,20.98480224609375,-28.40092468261719,-36.21832275390625,-1,2,112247.9873875,unknown,2,2025-04-20T10:22:11.301-04:00,null,0,0,0,0,0,0,0,null,112247.571488,0,0,101.6977,1745158932.803586,0.0.0.0,100.94.214.186,my_iOS_device,0,5,1745158932.768089,1,0.6,0
2025-04-20T10:22:13.370-04:00,21,1745158932.999838,40.31642943357016,-74.75843761427339,65.41155,0.03937969,1.017339,-1,-1,3,6.454845860311716,-9999,1745158933.350665,19.2095947265625,-28.62574005126953,-37.02883911132812,207.6573944091797,219.8490447998047,11.12759685516357,112250.0610197917,0.051177978515625,-0.36236572265625,-0.839874267578125,112250.0359757917,-0.03602857515215874,-1.404143691062927,-0.1486169099807739,112250.0383777917,467.4488830566406,-145.2482757568359,-406.950439453125,112250.0309667917,0.05752408973354037,0.1571541361539621,0.3058847316582636,0.001206530258059502,-1.300034284591675,-0.1122842356562614,-0.09357908368110657,-0.01093569397926331,0.0811881422996521,XArbitraryCorrectedZVertical,0.1495828645365506,0.08191555165620164,0.04028839510819389,0.9845260847868093,0.1492430865764618,-0.3011369705200195,-0.9418296217918396,19.56588745117188,-28.59315490722656,-36.71926879882812,-1,2,112247.9873875,unknown,2,2025-04-20T10:22:11.301-04:00,null,0,0,0,0,0,0,0,null,112247.571488,0,0,101.6977,1745158932.803586,0.0.0.0,100.94.214.186,my_iOS_device,0,5,1745158932.768089,1,0.6,0
2025-04-20T10:22:13.405-04:00,22,1745158932.999838,40.31642943357016,-74.75843761427339,65.41155,0.03937969,1.017339,-1,-1,3,6.454845860311716,-9999,1745158933.390461,17.28363037109375,-28.16313171386719,-38.20608520507812,208.7250213623047,220.9166717529297,11.12752342224121,112250.0910717917,0.1170806884765625,-0.32958984375,-1.00714111328125,112250.0660277917,-0.2262957245111465,-1.410392045974731,-0.2884557545185089,112250.0686157917,465.8773803710938,-144.9425659179688,-407.8322143554688,112250.0660277917,0.05004658543000443,0.1071127407047795,0.3007693628505603,-0.2237793058156967,-1.411545872688293,-0.2875729203224182,-0.05093086510896683,-0.0661105215549469,0.1097607612609863,XArbitraryCorrectedZVertical,0.1482325722363101,0.05665321117033234,0.03272020238679129,0.9867861902653396,0.1021088138222694,-0.2962551116943359,-0.9496350288391113,18.244384765625,-28.44451141357422,-37.64968872070312,-1,2,112247.9873875,unknown,2,2025-04-20T10:22:11.301-04:00,null,0,0,0,0,0,0,0,null,112247.571488,0,0,101.6977,1745158932.803586,0.0.0.0,100.94.214.186,my_iOS_device,0,5,1745158932.768089,1,0.6,0
2025-04-20T10:22:13.430-04:00,23,1745158932.999838,40.31642943357016,-74.75843761427339,65.41155,0.03937969,1.017339,-1,-1,3,6.454845860311716,-9999,1745158933.41067,16.84469604492188,-27.88059997558594,-38.50442504882812,209.1218566894531,221.3135070800781,11.12747669219971,112250.1211247917,0.077880859375,-0.30218505859375,-0.8590240478515625,112250.0960807917,-0.2227587699890137,-0.597280740737915,-0.2366868406534195,112250.0988527917,465.1571655273438,-144.4382629394531,-408.3280334472656,112250.1010897917,0.04121768100766222,0.07774330252349239,0.2909555752007381,-0.1953616738319397,-0.561358630657196,-0.2185332030057907,0.04210004955530167,-0.02592206001281738,-0.06854397058486938,XArbitraryCorrectedZVertical,0.1440325359185494,0.04142828620175408,0.02600671907604413,0.9883632856856021,0.07440076768398285,-0.286867767572403,-0.9550766348838806,16.84469604492188,-27.88059997558594,-38.50442504882812,-1,2,112247.9873875,unknown,2,2025-04-20T10:22:11.301-04:00,null,0,0,0,0,0,0,0,null,112247.571488,0,0,101.6977,1745158932.803586,0.0.0.0,100.94.214.186,my_iOS_device,0,5,1745158932.768089,1,0.6,0
2025-04-20T10:22:13.460-04:00,24,1745158932.999838,40.31642943357016,-74.75843761427339,65.41155,0.03937969,1.017339,-1,-1,3,6.454845860311716,-9999,1745158933.450585,15.88946533203125,-27.19258117675781,-39.48391723632812,209.8872680664062,222.0789184570312,11.12738609313965,112250.1511777917,0.0363616943359375,-0.373565673828125,-0.9645843505859375,112250.1261337917,-0.3182858228683472,-0.8102158904075623,-0.2363563477993011,112250.1290897917,464.2889709472656,-143.8248596191406,-408.8966674804688,112250.1361517917,0.03353181786966012,0.05577121742263128,0.2808287030465222,-0.4486749470233917,-0.8319084644317627,-0.3074149787425995,0.01574672758579254,-0.05494022369384766,0.1417662501335144,XArbitraryCorrectedZVertical,0.139416480725624,0.02994912602988228,0.02049530003407026,0.9895686258379521,0.05355866625905037,-0.2771519720554352,-0.9593321681022644,16.07733154296875,-27.33918762207031,-39.00677490234375,-1,2,112247.9873875,unknown,2,2025-04-20T10:22:11.301-04:00,null,0,0,0,0,0,0,0,null,112247.571488,0,0,101.6977,1745158932.803586,0.0.0.0,100.94.214.186,my_iOS_device,0,5,1745158932.768089,1,0.6,0
2025-04-20T10:22:13.490-04:00,25,1745158932.999838,40.31642943357016,-74.75843761427339,65.41155,0.03937969,1.017339,-1,-1,3,6.454845860311716,-9999,1745158933.470616,15.90774536132812,-26.73661804199219,-39.543212890625,210.3802337646484,222.5718841552734,11.12734317779541,112250.1812307917,-0.043975830078125,-0.1737213134765625,-1.198165893554688,112250.1561867917,-0.6542065739631653,0.2020857185125351,-0.4473226368427277,112250.1593277917,464.3338623046875,-143.2939300537109,-409.2977905273438,112250.1712127917,0.02046028624163159,0.06222793570362813,0.2587258719385865,-0.6787319779396057,1.243172764778137,-0.293290913105011,-0.07531575858592987,0.03918957710266113,-0.2069836258888245,XArbitraryCorrectedZVertical,0.1286176618218844,0.03216644821745054,0.01415249625699971,0.9910713827172342,0.06011797115206718,-0.2558490335941315,-0.9648456573486328,16.21868896484375,-26.3802490234375,-39.5875244140625,-1,2,112247.9873875,unknown,2,2025-04-20T10:22:11.301-04:00,null,0,0,0,0,0,0,0,null,112247.571488,0,0,101.6977,1745158932.803586,0.0.0.0,100.94.214.186,my_iOS_device,0,5,1745158932.768089,1,0.6,0
2025-04-20T10:22:13.526-04:00,26,1745158932.999838,40.31642943357016,-74.75843761427339,65.41155,0.03937969,1.017339,-1,-1,3,6.454845860311716,-9999,1745158933.510634,18.254638671875,-25.72234344482422,-39.29718017578125,210.2815704345703,222.4732208251953,11.127272605896,112250.2112837917,0.09136962890625,-0.1828460693359375,-1.131393432617188,112250.1862397917,-0.6015591025352478,1.765923738479614,-0.1258231699466705,112250.1895657917,466.2579956054688,-142.3143768310547,-409.294677734375,112250.2062747917,0.02006312992162393,0.1195953307883671,0.2398965625454901,-0.2855829000473022,1.425141572952271,0.2911426424980164,-0.1058839708566666,0.03420257568359375,-0.239997923374176,XArbitraryCorrectedZVertical,0.1188457832056051,0.06052786760679187,0.01709233467077977,0.990918739121504,0.115893691778183,-0.2376021593809128,-0.9644241333007812,18.254638671875,-25.72234344482422,-39.29718017578125,-1,2,112247.9873875,unknown,2,2025-04-20T10:22:11.301-04:00,null,0,0,0,0,0,0,0,null,112248.598486,0,-0.0264225,101.6979,1745158932.803586,0.0.0.0,100.94.214.186,my_iOS_device,0,5,1745158932.768089,1,0.6,0
2025-04-20T10:22:13.550-04:00,27,1745158932.999838,40.31642943357016,-74.75843761427339,65.41155,0.03937969,1.017339,-1,-1,3,6.454845860311716,-9999,1745158933.530642,19.1512451171875,-25.72233581542969,-38.94818115234375,209.5730285644531,221.7646789550781,11.12721729278564,112250.2413367917,0.2392730712890625,-0.0708770751953125,-0.8972930908203125,112250.2162927917,-0.1208686307072639,0.9436692595481873,0.6159327030181885,112250.2198057917,467.6322937011719,-142.3602294921875,-408.667236328125,112250.2062747917,0.02006312992162393,0.1195953307883671,0.2398965625454901,-0.2855829000473022,1.425141572952271,0.2911426424980164,-0.1058839708566666,0.03420257568359375,-0.239997923374176,XArbitraryCorrectedZVertical,0.1188457832056051,0.06052786760679187,0.01709233467077977,0.990918739121504,0.115893691778183,-0.2376021593809128,-0.9644241333007812,18.254638671875,-25.72234344482422,-39.29718017578125,-1,2,112247.9873875,unknown,2,2025-04-20T10:22:11.301-04:00,null,0,0,0,0,0,0,0,null,112248.598486,0,-0.0264225,101.6979,1745158932.803586,0.0.0.0,100.94.214.186,my_iOS_device,0,5,1745158932.768089,1,0.6,0
2025-04-20T10:22:13.581-04:00,28,1745158932.999838,40.31642943357016,-74.75843761427339,65.41155,0.03937969,1.017339,-1,-1,3,6.454845860311716,-9999,1745158933.570767,17.95993041992188,-26.74093627929688,-38.92721557617188,207.1511840820312,219.3428344726562,11.12710952758789,112250.2713897917,0.196746826171875,-0.2781829833984375,-0.869049072265625,112250.2463457917,0.3574641346931458,-0.4504494667053223,1.19331431388855,112250.2500427917,466.541748046875,-143.0983123779297,-408.5260620117188,112250.2413367917,0.04942023782787831,0.1318381309582251,0.2440217628283428,0.2950961589813232,-0.2890841066837311,1.18175220489502,0.1117110103368759,0.1707301884889603,0.06466007232666016,XArbitraryCorrectedZVertical,0.1197915607160148,0.0683622800762604,0.03248531324755567,0.9899096518460175,0.1275620311498642,-0.2416071891784668,-0.9619531631469727,18.91213989257812,-26.07098388671875,-38.87136840820312,-1,2,112247.9873875,unknown,2,2025-04-20T10:22:11.301-04:00,null,0,0,0,0,0,0,0,null,112248.598486,0,-0.0264225,101.6979,1745158932.803586,0.0.0.0,100.94.214.186,my_iOS_device,0,5,1745158932.768089,1,0.6,0
2025-04-20T10:22:13.611-04:00,29,1745158932.999838,40.31642943357016,-74.75843761427339,65.41155,0.03937969,1.017339,-1,-1,3,6.454845860311716,-9999,1745158933.590832,16.3328857421875,-27.379150390625,-38.91152954101562,206.1972198486328,218.3888702392578,11.12707042694092,112250.3014427917,-0.00775146484375,-0.2607574462890625,-0.868865966796875,112250.2763977917,0.6047711372375488,-1.453127264976501,0.9876289963722229,112250.2802787917,464.431640625,-144.0654602050781,-408.6453857421875,112250.2763977917,0.08769221901836172,0.09058777084236362,0.2648404289146239,0.6072855591773987,-1.454282164573669,0.9885101914405823,0.1094369515776634,-0.01642760634422302,0.09212791919708252,XArbitraryCorrectedZVertical,0.129804097775105,0.0506202275645447,0.0493762820489712,0.989014950573687,0.08730983734130859,-0.2617552578449249,-0.9611769914627075,17.037353515625,-27.16957092285156,-39.05239868164062,-1,2,112247.9873875,unknown,2,2025-04-20T10:22:11.301-04:00,null,0,0,0,0,0,0,0,null,112248.598486,0,-0.0264225,101.6979,1745158932.803586,0.0.0.0,100.94.214.186,my_iOS_device,0,5,1745158932.768089,1,0.6,0
2025-04-20T10:22:13.647-04:00,30,1745158932.999838,40.31642943357016,-74.75843761427339,65.41155,0.03937969,1.017339,-1,-1,3,6.454845860311716,-9999,1745158933.630903,13.50048828125,-28.76275634765625,-38.95526123046875,205.0288391113281,217.2204895019531,11.12698745727539,112250.3314947917,-0.060821533203125,-0.37646484375,-0.82391357421875,112250.3064507917,0.5551340579986572,-1.191503882408142,0.6366121172904968,112250.3105157917,461.9969177246094,-145.3488006591797,-408.5708923339844,112250.3114597917,0.1170766421608881,0.03543814355469304,0.2882440218571826,0.4913510084152222,-1.106108546257019,0.4848555028438568,-0.06314384937286377,-0.04294022917747498,0.1228306889533997,XArbitraryCorrectedZVertical,0.1423292433313076,0.02590578363941094,0.06042964013786466,0.9876332117768626,0.03396901488304138,-0.2842691242694855,-0.9581425786018372,13.94552612304688,-28.59243774414062,-38.87265014648438,-1,2,112247.9873875,unknown,2,2025-04-20T10:22:11.301-04:00,null,0,0,0,0,0,0,0,null,112248.598486,0,-0.0264225,101.6979,1745158932.803586,0.0.0.0,100.94.214.186,my_iOS_device,0,5,1745158932.768089,1,0.6,0
2025-04-20T10:22:13.671-04:00,31,1745158932.999838,40.31642943357016,-74.75843761427339,65.41155,0.03937969,1.017339,-1,-1,3,6.454845860311716,-9999,1745158933.651038,13.08657836914062,-29.06410980224609,-39.19265747070312,205.1816558837891,217.3733062744141,11.12693881988525,112250.3615477917,-0.039215087890625,-0.34051513671875,-0.822998046875,112250.3365037917,0.187917172908783,-0.6596354246139526,-0.1112756580114365,112250.3407537917,461.4137573242188,-145.6819458007812,-409.082763671875,112250.3465217917,0.1189182098222371,0.006730666009841928,0.298014076724764,0.1346102803945541,-0.6204783320426941,-0.2213275730609894,-0.05599451065063477,-0.0639672577381134,0.1173988580703735,XArbitraryCorrectedZVertical,0.1479952993022893,0.01214398042669186,0.05926398630140384,0.9871360786037,0.006433939561247826,-0.2936224043369293,-0.9558998346328735,13.08657836914062,-29.06410980224609,-39.19265747070312,-1,2,112247.9873875,unknown,2,2025-04-20T10:22:11.301-04:00,null,0,0,0,0,0,0,0,null,112248.598486,0,-0.0264225,101.6979,1745158932.803586,0.0.0.0,100.94.214.186,my_iOS_device,0,5,1745158932.768089,1,0.6,0
2025-04-20T10:22:13.701-04:00,32,1745158932.999838,40.31642943357016,-74.75843761427339,65.41155,0.03937969,1.017339,-1,-1,3,6.454845860311716,-9999,1745158933.691071,12.3658447265625,-29.17867279052734,-39.477783203125,206.1210021972656,218.3126525878906,11.12684917449951,112250.3916007917,-0.0397796630859375,-0.3284912109375,-0.91015625,112250.3665567917,0.04107499867677689,-0.7160686254501343,-0.3449027836322784,112250.3709927917,460.8529052734375,-145.9477691650391,-409.0440063476562,112250.3815837917,0.1068835653470887,-0.01252747364740085,0.3003828305583481,0.03817015886306763,-0.5107653141021729,-0.4086492657661438,-0.04359105229377747,-0.03934958577156067,0.07994997501373291,XArbitraryCorrectedZVertical,0.1497416731501834,0.00180805324699924,0.05187809575860339,0.9873614808043486,-0.01196622103452682,-0.2958859205245972,-0.9551483392715454,12.3658447265625,-29.17867279052734,-39.477783203125,-1,2,112247.9873875,unknown,2,2025-04-20T10:22:11.301-04:00,null,0,0,0,0,0,0,0,null,112248.598486,0,-0.0264225,101.6979,1745158932.803586,0.0.0.0,100.94.214.186,my_iOS_device,0,5,1745158932.768089,1,0.6,0
2025-04-20T10:22:13.731-04:00,33,1745158932.999838,40.31642943357016,-74.75843761427339,65.41155,0.03937969,1.017339,-1,-1,3,6.454845860311716,-9999,1745158933.711072,12.2469482421875,-29.18983459472656,-39.5601806640625,206.6736602783203,218.8653106689453,11.12680816650391,112250.4216537917,0.0163726806640625,-0.2711639404296875,-0.898284912109375,112250.3966097917,-0.03158562257885933,-0.5241844058036804,-0.3945859372615814,112250.4012307917,460.5536499023438,-145.8092498779297,-409.4143676757812,112250.4166447917,0.09347591449414391,-0.02445805891366058,0.2994056853886818,-0.1239918246865273,-0.2920378148555756,-0.249595120549202,0.03159209713339806,0.01991280913352966,0.08660435676574707,XArbitraryCorrectedZVertical,0.1495352466332222,-0.005111105410141643,0.04437308316640347,0.9877469751518428,-0.02336763776838779,-0.294952392578125,-0.9552261829376221,12.20901489257812,-29.14923095703125,-39.5235595703125,-1,2,112247.9873875,unknown,2,2025-04-20T10:22:11.301-04:00,null,0,0,0,0,0,0,0,null,112248.598486,0,-0.0264225,101.6979,1745158932.803586,0.0.0.0,100.94.214.186,my_iOS_device,0,5,1745158932.768089,1,0.6,0
2025-04-20T10:22:13.767-04:00,34,1745158932.999838,40.31642943357016,-74.75843761427339,65.41155,0.03937969,1.017339,-1,-1,3,6.454845860311716,-9999,1745158933.751169,11.9615478515625,-28.75326538085938,-39.58786010742188,207.280517578125,219.47216796875,11.12672710418701,112250.4517067917,-0.128326416015625,-0.27996826171875,-0.9754791259765625,112250.4266627917,-0.1897363811731339,-0.1347548812627792,-0.1783569604158401,112250.4314717917,460.4984130859375,-145.5512390136719,-409.5352172851562,112250.4166447917,0.09347591449414391,-0.02445805891366058,0.2994056853886818,-0.1239918246865273,-0.2920378148555756,-0.249595120549202,0.03159209713339806,0.01991280913352966,0.08660435676574707,XArbitraryCorrectedZVertical,0.1495352466332222,-0.005111105410141643,0.04437308316640347,0.9877469751518428,-0.02336763776838779,-0.294952392578125,-0.9552261829376221,12.20901489257812,-29.14923095703125,-39.5235595703125,-1,2,112247.9873875,unknown,2,2025-04-20T10:22:11.301-04:00,null,0,0,0,0,0,0,0,null,112248.598486,0,-0.0264225,101.6979,1745158932.803586,0.0.0.0,100.94.214.186,my_iOS_device,0,5,1745158932.768089,1,0.6,0
2025-04-20T10:22:13.791-04:00,35,1745158932.999838,40.31642943357016,-74.75843761427339,65.41155,0.03937969,1.017339,-1,-1,3,6.454845860311716,-9999,1745158933.771139,12.29257202148438,-28.4534912109375,-39.75341796875,207.5631256103516,219.7547760009766,11.12668609619141,112250.4817597917,0.065643310546875,-0.2485504150390625,-0.9652862548828125,112250.4567157917,-0.2440475523471832,0.05812801793217659,-0.2870027422904968,112250.4617087917,460.7688598632812,-145.0032348632812,-409.6135864257812,112250.4517067917,0.08604749651165305,-0.02341593758154533,0.2927242654485022,-0.2346460670232773,0.1120627745985985,-0.2657395303249359,-0.1059086322784424,0.008593499660491943,-0.01828032732009888,XArbitraryCorrectedZVertical,0.1461933579266935,-0.005299582730530475,0.04084182615552929,0.9883983951621261,-0.02241780608892441,-0.2885616719722748,-0.9571988582611084,12.04559326171875,-28.59228515625,-39.6505126953125,-1,2,112247.9873875,unknown,2,2025-04-20T10:22:11.301-04:00,null,0,0,0,0,0,0,0,null,112248.598486,0,-0.0264225,101.6979,1745158932.803586,0.0.0.0,100.94.214.186,my_iOS_device,0,5,1745158932.768089,1,0.6,0
2025-04-20T10:22:13.821-04:00,36,1745158932.999838,40.31642943357016,-74.75843761427339,65.41155,0.03937969,1.017339,-1,-1,3,6.454845860311716,-9999,1745158933.811212,11.6156005859375,-27.88568115234375,-40.20571899414062,207.9542236328125,220.1458740234375,11.12660789489746,112250.5118127917,0.0127410888671875,-0.2319793701171875,-0.9875640869140625,112250.4867687917,-0.1673130989074707,-0.4322829842567444,-0.06615851074457169,112250.4919457917,460.2047119140625,-144.5727996826172,-409.7036743164062,112250.4867687917,0.07790551410303623,-0.02452611119658354,0.2852092311245645,-0.1648018360137939,-0.433439701795578,-0.06527986377477646,0.08917625248432159,0.03280791640281677,-0.005972087383270264,XArbitraryCorrectedZVertical,0.1424759915437173,-0.006594844660650575,0.03680322677716957,0.9890917631099245,-0.02353296615183353,-0.2813582420349121,-0.959314227104187,12.2325439453125,-28.22686767578125,-39.87640380859375,-1,2,112247.9873875,unknown,2,2025-04-20T10:22:11.301-04:00,null,0,0,0,0,0,0,0,null,112248.598486,0,-0.0264225,101.6979,1745158932.803586,0.0.0.0,100.94.214.186,my_iOS_device,0,5,1745158932.768089,1,0.6,0
2025-04-20T10:22:13.851-04:00,37,1745158932.999838,40.31642943357016,-74.75843761427339,65.41155,0.03937969,1.017339,-1,-1,3,6.454845860311716,-9999,1745158933.831161,10.97085571289062,-27.97246551513672,-40.2330322265625,208.0340423583984,220.2256927490234,11.12657642364502,112250.5418657917,-0.087005615234375,-0.286529541015625,-0.9554443359375,112250.5168217917,0.09480480849742889,-1.150642156600952,0.09534169733524323,112250.5221787917,459.1774291992188,-144.6397247314453,-409.9967651367188,112250.5218307917,0.07946328431360297,-0.05491216480773339,0.2845381069596178,0.1077975407242775,-1.191534042358398,0.085870660841465,0.03493174538016319,0.0724012553691864,-0.01566958427429199,XArbitraryCorrectedZVertical,0.1427037505987933,-0.02152389868903778,0.03541563499726817,0.9888973631592237,-0.05267773941159248,-0.2807141542434692,-0.9583446979522705,10.97085571289062,-27.97246551513672,-40.2330322265625,-1,2,112247.9873875,unknown,2,2025-04-20T10:22:11.301-04:00,null,0,0,0,0,0,0,0,null,112248.598486,0,-0.0264225,101.6979,1745158932.803586,0.0.0.0,100.94.214.186,my_iOS_device,0,5,1745158932.768089,1,0.6,0
2025-04-20T10:22:13.884-04:00,38,1745158932.999838,40.31642943357016,-74.75843761427339,65.41155,0.03937969,1.017339,-1,-1,3,6.454845860311716,-9999,1745158933.871316,8.537841796875,-28.27899932861328,-40.93899536132812,208.4855651855469,220.6772155761719,11.12652778625488,112250.5719187917,-0.1184844970703125,-0.2981719970703125,-0.9451751708984375,112250.5468747917,0.1323476582765579,-1.597887873649597,-0.01561517827212811,112250.5524117917,457.5410766601562,-145.0103302001953,-410.3856811523438,112250.5568917917,0.08066164702157808,-0.1065555997750666,0.2890499503768732,0.07259922474622726,-1.70548403263092,-0.05105465278029442,0.001294992864131927,-0.00870513916015625,0.03950446844100952,XArbitraryCorrectedZVertical,0.1458258315037019,-0.04685583327180515,0.03217959090761918,0.9876759044741367,-0.1019419878721237,-0.2850417196750641,-0.9530786871910095,9.334869384765625,-28.29756927490234,-40.58428955078125,-1,2,112247.9873875,unknown,2,2025-04-20T10:22:11.301-04:00,null,0,0,0,0,0,0,0,null,112248.598486,0,-0.0264225,101.6979,1745158932.803586,0.0.0.0,100.94.214.186,my_iOS_device,0,5,1745158932.768089,1,0.6,0
2025-04-20T10:22:13.911-04:00,39,1745158932.999838,40.31642943357016,-74.75843761427339,65.41155,0.03937969,1.017339,-1,-1,3,6.454845860311716,-9999,1745158933.891352,7.323089599609375,-28.35112762451172,-40.90267944335938,208.7886199951172,220.9802703857422,11.12650394439697,112250.6019717917,-0.1073150634765625,-0.31488037109375,-1.024826049804688,112250.5769277917,0.0983705148100853,-1.439509987831116,-0.04432059451937675,112250.5826467917,455.471923828125,-145.0098571777344,-410.7200317382812,112250.5919537917,0.08054351963299179,-0.158689418660121,0.2938329200697633,0.3599846959114075,-1.207250833511353,0.03202933818101883,0.04678975045681,-0.001270473003387451,-0.1123195290565491,XArbitraryCorrectedZVertical,0.1489663966250665,-0.07246885315967476,0.02810828732315336,0.9857825158623461,-0.1512514352798462,-0.2896229922771454,-0.9451145529747009,6.6688232421875,-28.39032745361328,-40.93267822265625,-1,2,112247.9873875,unknown,2,2025-04-20T10:22:11.301-04:00,null,0,0,0,0,0,0,0,null,112248.598486,0,-0.0264225,101.6979,1745158932.803586,0.0.0.0,100.94.214.186,my_iOS_device,0,5,1745158932.768089,1,0.6,0
2025-04-20T10:22:13.941-04:00,40,1745158932.999838,40.31642943357016,-74.75843761427339,65.41155,0.03937969,1.017339,-1,-1,3,6.454845860311716,-9999,1745158933.931375,5.360198974609375,-28.82455444335938,-40.52716064453125,209.0428314208984,221.2344818115234,11.12643623352051,112250.632024625,-0.194305419921875,-0.280853271484375,-0.9632720947265625,112250.6069807917,0.4467676281929016,-1.059104561805725,0.003425357863306999,112250.6128817917,453.8979797363281,-145.3003234863281,-410.7057495117188,112250.627015625,0.08379537651693399,-0.1937083115357245,0.3084466507000564,0.3886866271495819,-0.6063782572746277,-0.005233637522906065,0.01504892110824585,0.0004479289054870605,-0.04909902811050415,XArbitraryCorrectedZVertical,0.1567609531147781,-0.08906721646125811,0.02635258324095269,0.9832590918326379,-0.183414414525032,-0.3035789728164673,-0.9349860548973083,5.360198974609375,-28.82455444335938,-40.52716064453125,-1,2,112247.9873875,unknown,2,2025-04-20T10:22:11.301-04:00,null,0,0,0,0,0,0,0,null,112248.598486,0,-0.0264225,101.6979,1745158932.803586,0.0.0.0,100.94.214.186,my_iOS_device,0,5,1745158932.768089,1,0.6,0
2025-04-20T10:22:13.971-04:00,41,1745158932.999838,40.31642943357016,-74.75843761427339,65.41155,0.03937969,1.017339,-1,-1,3,6.454845860311716,-9999,1745158933.951503,4.967498779296875,-29.17227172851562,-40.59149169921875,209.0791778564453,221.2708282470703,11.12639331817627,112250.662077625,-0.184539794921875,-0.2669677734375,-0.93658447265625,112250.637033625,0.3183556199073792,-0.3655303120613098,0.0146449888125062,112250.643118625,453.2802124023438,-145.8805847167969,-410.3835754394531,112250.627015625,0.08379537651693399,-0.1937083115357245,0.3084466507000564,0.3886866271495819,-0.6063782572746277,-0.005233637522906065,0.01504892110824585,0.0004479289054870605,-0.04909902811050415,XArbitraryCorrectedZVertical,0.1567609531147781,-0.08906721646125811,0.02635258324095269,0.9832590918326379,-0.183414414525032,-0.3035789728164673,-0.9349860548973083,5.360198974609375,-28.82455444335938,-40.52716064453125,-1,2,112247.9873875,unknown,2,2025-04-20T10:22:11.301-04:00,null,0,0,0,0,0,0,0,null,112248.598486,0,-0.0264225,101.6979,1745158932.803586,0.0.0.0,100.94.214.186,my_iOS_device,0,5,1745158932.768089,1,0.6,0
2025-04-20T10:22:14.004-04:00,42,1745158932.999838,40.31642943357016,-74.75843761427339,65.41155,0.03937969,1.017339,-1,-1,3,6.454845860311716,-9999,1745158933.991531,4.4093017578125,-29.55148315429688,-40.396240234375,208.7564392089844,220.9480895996094,11.12630558013916,112250.692130625,-0.155731201171875,-0.31475830078125,-0.889068603515625,112250.667086625,0.1950840055942535,-0.1620123386383057,0.2033938616514206,112250.673358625,452.978271484375,-146.1013946533203,-410.1572570800781,112250.662077625,0.08779713039725558,-0.2043372351271172,0.3173983963699658,0.1895564645528793,-0.1133179366588593,0.1652698963880539,0.008242785930633545,0.04512831568717957,-0.006299018859863281,XArbitraryCorrectedZVertical,0.1614779114014649,-0.09371322408254802,0.02700453346361211,0.9820455490938127,-0.1927825808525085,-0.31209596991539,-0.9302854537963867,4.794219970703125,-29.23773193359375,-40.44366455078125,-1,2,112247.9873875,unknown,2,2025-04-20T10:22:11.301-04:00,null,0,0,0,0,0,0,0,null,112248.598486,0,-0.0264225,101.6979,1745158932.803586,0.0.0.0,100.94.214.186,my_iOS_device,0,5,1745158932.768089,1,0.6,0
2025-04-20T10:22:14.031-04:00,43,1745158932.999838,40.31642943357016,-74.75843761427339,65.41155,0.03937969,1.017339,-1,-1,3,6.454845860311716,-9999,1745158934.011636,3.71759033203125,-29.96351623535156,-40.03515625,208.6351470947266,220.8267974853516,11.12626934051514,112250.722183625,-0.191436767578125,-0.30377197265625,-0.88079833984375,112250.697139625,0.4764560163021088,-0.9770964980125427,0.1672845929861069,112250.703600625,451.9605102539062,-146.6737518310547,-409.7183837890625,112250.697139625,0.09801954220251213,-0.2254760739301457,0.326479574279475,0.4789547324180603,-0.9782602190971375,0.1681530624628067,0.05602958798408508,0.005952358245849609,0.0341334342956543,XArbitraryCorrectedZVertical,0.166728289622973,-0.1029593891655831,0.02977104077539879,0.9801605131486898,-0.2117608040571213,-0.3207105696201324,-0.9232020974159241,4.0511474609375,-29.72776794433594,-40.29141235351562,-1,2,112247.9873875,unknown,2,2025-04-20T10:22:11.301-04:00,null,0,0,0,0,0,0,0,null,112248.598486,0,-0.0264225,101.6979,1745158932.803586,0.0.0.0,100.94.214.186,my_iOS_device,0,5,1745158932.768089,1,0.6,0
2025-04-20T10:22:14.061-04:00,44,1745158932.999838,40.31642943357016,-74.75843761427339,65.41155,0.03937969,1.017339,-1,-1,3,6.454845860311716,-9999,1745158934.051677,1.41143798828125,-30.83647918701172,-39.81332397460938,208.4466857910156,220.6383361816406,11.12620639801025,112250.752236625,-0.219482421875,-0.3578338623046875,-0.7599639892578125,112250.727192625,0.4935916066169739,-1.169909596443176,0.2160468101501465,112250.733837625,450.31982421875,-147.3118133544922,-409.6919860839844,112250.732200625,0.1099184583406764,-0.2687624802303354,0.3425791036327591,0.4654340445995331,-1.192313671112061,0.2418985068798065,0.05746623873710632,0.03916460275650024,0.05471467971801758,XArbitraryCorrectedZVertical,0.1759132791983909,-0.1225383374713609,0.03083734144718309,0.9762621587152845,-0.2501084804534912,-0.3359174430370331,-0.9080777764320374,2.16162109375,-30.64913177490234,-39.9176025390625,-1,2,112247.9873875,unknown,2,2025-04-20T10:22:11.301-04:00,null,0,0,0,0,0,0,0,null,112248.598486,0,-0.0264225,101.6979,1745158932.803586,0.0.0.0,100.94.214.186,my_iOS_device,0,5,1745158932.768089,1,0.6,0
2025-04-20T10:22:14.091-04:00,45,1745158933.999825,40.31642790089516,-74.75843839341094,65.53586,0.04074257,1.079399,-1,-1,3,6.433348118989244,-9999,1745158934.071562,0.2313232421875,-31.20268249511719,-39.31231689453125,208.3224029541016,220.5140533447266,11.12618255615234,112250.782289625,-0.3678131103515625,-0.383148193359375,-0.7938690185546875,112250.757245625,0.3983305990695953,-1.394492149353027,0.2659733593463898,112250.764071625,448.3234252929688,-147.9038543701172,-408.9142456054688,112250.767262625,0.1243182461249031,-0.320005464529124,0.3537601551176962,0.3972633481025696,-1.451309084892273,0.1973019689321518,0.03001675009727478,-0.02852657437324524,0.1299865245819092,XArbitraryCorrectedZVertical,0.1831186078514967,-0.1457413916566351,0.03238897423102361,0.9716882262959025,-0.2950924336910248,-0.3464275598526001,-0.8904540538787842,0.2313232421875,-31.20268249511719,-39.31231689453125,-1,2,112247.9873875,unknown,2,2025-04-20T10:22:11.301-04:00,null,0,0,0,0,0,0,0,null,112248.598486,0,-0.0264225,101.6979,1745158932.803586,0.0.0.0,100.94.214.186,my_iOS_device,0,5,1745158932.768089,1,0.6,0
2025-04-20T10:22:14.126-04:00,46,1745158933.999825,40.31642790089516,-74.75843839341094,65.53586,0.04074257,1.079399,-1,-1,3,6.433348118989244,-9999,1745158934.112084,-2.438873291015625,-31.91842651367188,-38.71963500976562,208.4772338867188,220.6688842773438,11.12614822387695,112250.812342625,-0.4567108154296875,-0.3542938232421875,-0.7881622314453125,112250.787298625,0.4947636723518372,-1.549883842468262,0.08714448660612106,112250.794307625,446.3112487792969,-148.3154602050781,-408.6449584960938,112250.802324625,0.135092462581583,-0.3777591388137074,0.368562660708784,0.6240646243095398,-1.688172936439514,0.05006198957562447,-0.05488669872283936,0.005966007709503174,0.08066689968109131,XArbitraryCorrectedZVertical,0.1920289268278991,-0.1720106921573496,0.03084558654542633,0.9657048437223857,-0.3440696001052856,-0.360275000333786,-0.8670744299888611,-2.438873291015625,-31.91842651367188,-38.71963500976562,-1,2,112247.9873875,unknown,2,2025-04-20T10:22:11.301-04:00,null,0,0,0,0,0,0,0,null,112248.598486,0,-0.0264225,101.6979,1745158932.803586,0.0.0.0,100.94.214.186,my_iOS_device,0,5,1745158932.768089,1,0.6,0
2025-04-20T10:22:14.152-04:00,47,1745158933.999825,40.31642790089516,-74.75843839341094,65.53586,0.04074257,1.079399,-1,-1,3,6.433348118989244,-9999,1745158934.131764,-3.207122802734375,-32.15824890136719,-38.52749633789062,208.7409210205078,220.9325714111328,11.12624454498291,112250.842395625,-0.7343597412109375,-0.36859130859375,-0.8802490234375,112250.817351625,0.8522283434867859,-1.866023659706116,-0.08674288541078568,112250.824545625,444.2714233398438,-149.1541595458984,-407.6741333007812,112250.837386625,0.1444641759872907,-0.4463523722998478,0.4011994650666428,1.36668860912323,-1.974332213401794,-0.4750980734825134,-0.2956542372703552,0.02197739481925964,-0.04728496074676514,XArbitraryCorrectedZVertical,0.2094614876962279,-0.2023007579294663,0.02498194307786043,0.9563346915077284,-0.3973999619483948,-0.390522837638855,-0.8304005861282349,-4.6434326171875,-32.8380126953125,-37.53097534179688,-1,2,112247.9873875,unknown,2,2025-04-20T10:22:11.301-04:00,null,0,0,0,0,0,0,0,null,112248.598486,0,-0.0264225,101.6979,1745158932.803586,0.0.0.0,100.94.214.186,my_iOS_device,0,5,1745158932.768089,1,0.6,0
2025-04-20T10:22:14.182-04:00,48,1745158933.999825,40.31642790089516,-74.75843839341094,65.53586,0.04074257,1.079399,-1,-1,3,6.433348118989244,-9999,1745158934.172049,-5.563629150390625,-34.06056976318359,-36.16848754882812,210.1500244140625,222.3416748046875,11.12626266479492,112250.872448625,-0.570709228515625,-0.3520965576171875,-0.5033111572265625,112250.847404625,1.572348356246948,-2.025394678115845,-0.6110021471977234,112250.854786625,442.6556396484375,-150.9647674560547,-405.6141357421875,112250.837386625,0.1444641759872907,-0.4463523722998478,0.4011994650666428,1.36668860912323,-1.974332213401794,-0.4750980734825134,-0.2956542372703552,0.02197739481925964,-0.04728496074676514,XArbitraryCorrectedZVertical,0.2094614876962279,-0.2023007579294663,0.02498194307786043,0.9563346915077284,-0.3973999619483948,-0.390522837638855,-0.8304005861282349,-4.6434326171875,-32.8380126953125,-37.53097534179688,-1,2,112247.9873875,unknown,2,2025-04-20T10:22:11.301-04:00,null,0,0,0,0,0,0,0,null,112248.598486,0,-0.0264225,101.6979,1745158932.803586,0.0.0.0,100.94.214.186,my_iOS_device,0,5,1745158932.768089,1,0.6,0
2025-04-20T10:22:14.212-04:00,49,1745158933.999825,40.31642790089516,-74.75843839341094,65.53586,0.04074257,1.079399,-1,-1,3,6.433348118989244,-9999,1745158934.191947,-6.829315185546875,-35.32963562011719,-34.59719848632812,211.1026763916016,223.2943267822266,11.12629413604736,112250.902501625,-0.737274169921875,-0.342071533203125,-0.314056396484375,112250.877457625,1.52938175201416,-2.769014596939087,-0.5642892122268677,112250.885023625,440.3682861328125,-152.6309356689453,-403.0333862304688,112250.872448625,0.152680745492209,-0.525587611881095,0.4608170470143314,1.59167468547821,-2.577369689941406,-0.5939783453941345,-0.1213226616382599,0.09258359670639038,0.2714864611625671,XArbitraryCorrectedZVertical,0.2391811916810797,-0.2353583333006597,0.01254718266258461,0.9419349417711356,-0.4493865668773651,-0.4446800649166107,-0.7747976183891296,-6.085601806640625,-34.68840789794922,-35.5701904296875,-1,2,112247.9873875,unknown,2,2025-04-20T10:22:11.301-04:00,null,0,0,0,0,0,0,0,null,112248.598486,0,-0.0264225,101.6979,1745158932.803586,0.0.0.0,100.94.214.186,my_iOS_device,0,5,1745158932.768089,1,0.6,0
2025-04-20T10:22:14.246-04:00,50,1745158933.999825,40.31642790089516,-74.75843839341094,65.53586,0.04074257,1.079399,-1,-1,3,6.433348118989244,-9999,1745158934.232001,-9.92333984375,-37.26262664794922,-31.929443359375,214.6895599365234,226.8812103271484,11.12643051147461,112250.932554625,-0.786163330078125,-0.1941986083984375,-0.2744293212890625,112250.907510625,1.200139403343201,-3.570616722106934,-1.081447601318359,112250.915258625,438.2274780273438,-154.11328125,-401.3499450683594,112250.907510625,0.1612808103966448,-0.6425268390959316,0.5143072516718168,1.202632546424866,-3.571783542633057,-1.080583691596985,-0.2155727744102478,0.1498604118824005,0.3829591274261475,XArbitraryCorrectedZVertical,0.2651319539436794,-0.2849513634598653,-0.006128850161897832,0.9211243333493926,-0.5217013359069824,-0.491931825876236,-0.6970155239105225,-9.34442138671875,-36.65065002441406,-32.84286499023438,-1,2,112247.9873875,unknown,2,2025-04-20T10:22:11.301-04:00,null,0,0,0,0,0,0,0,null,112248.598486,0,-0.0264225,101.6979,1745158932.803586,0.0.0.0,100.94.214.186,my_iOS_device,0,5,1745158932.768089,1,0.6,0
2025-04-20T10:22:14.272-04:00,51,1745158933.999825,40.31642790089516,-74.75843839341094,65.53586,0.04074257,1.079399,-1,-1,3,6.433348118989244,-9999,1745158934.252187,-10.40338134765625,-38.08245086669922,-30.64620971679688,217.7170104980469,229.9086608886719,11.12648773193359,112250.962607625,-0.6342315673828125,-0.195648193359375,-0.232391357421875,112250.937563625,0.735808789730072,-2.503107309341431,-2.177783489227295,112250.945497625,438.160888671875,-155.4032745361328,-399.695068359375,112250.942571625,0.1290447153866238,-0.7289512550682343,0.5793263876961714,0.6661087870597839,-2.448338031768799,-2.259992837905884,-0.1576235294342041,0.3696650862693787,0.3293858766555786,XArbitraryCorrectedZVertical,0.288337555595149,-0.3236916166880787,-0.04387102737438577,0.9000891200998359,-0.5574032664299011,-0.5474603772163391,-0.6241703629493713,-10.40338134765625,-38.08245086669922,-30.64620971679688,-1,2,112247.9873875,unknown,2,2025-04-20T10:22:11.301-04:00,null,0,0,0,0,0,0,0,null,112248.598486,0,-0.0264225,101.6979,1745158932.803586,0.0.0.0,100.94.214.186,my_iOS_device,0,5,1745158932.768089,1,0.6,0
2025-04-20T10:22:14.302-04:00,52,1745158933.999825,40.31642790089516,-74.75843839341094,65.53586,0.04074257,1.079399,-1,-1,3,6.433348118989244,-9999,1745158934.294578,-10.40200805664062,-39.51363372802734,-28.55154418945312,225.2889099121094,237.4805603027344,11.12670040130615,112250.992660625,-0.3533782958984375,-0.4041748046875,-0.3683013916015625,112250.967616625,0.2669592499732971,-3.603371381759644,-2.163772821426392,112250.975732625,437.9007568359375,-156.2205810546875,-398.2200317382812,112250.977633625,0.07170170152805705,-0.8076005137548324,0.6429906658369087,0.1331606805324554,-4.309040069580078,-2.033100366592407,0.02661365270614624,0.3416113257408142,0.2939217090606689,XArbitraryCorrectedZVertical,0.3037473964012293,-0.3621297936673717,-0.09280429183797105,0.8763485311892766,-0.5783256888389587,-0.5995915532112122,-0.5531990528106689,-10.420654296875,-39.50957489013672,-28.56195068359375,-1,2,112247.9873875,unknown,2,2025-04-20T10:22:11.301-04:00,null,0,0,0,0,0,0,0,null,112248.598486,0,-0.0264225,101.6979,1745158932.803586,0.0.0.0,100.94.214.186,my_iOS_device,0,5,1745158932.768089,1,0.6,0
2025-04-20T10:22:14.332-04:00,53,1745158933.999825,40.31642790089516,-74.75843839341094,65.53586,0.04074257,1.079399,-1,-1,3,6.433348118989244,-9999,1745158934.312214,-11.75381469726562,-39.78379058837891,-27.38037109375,229.7544708251953,241.9461212158203,11.12692356109619,112251.022713625,1.035491943359375,-0.283294677734375,-0.403564453125,112250.997669625,-0.0806700810790062,-5.693137645721436,-1.552226662635803,112251.005967625,435.0695495605469,-156.6893615722656,-395.9152221679688,112251.012695625,0.02873614167035058,-0.9755604724210672,0.680774381498698,-0.1270639449357986,-6.860988140106201,0.06831304728984833,0.8774024844169617,0.2966467142105103,0.09637472033500671,XArbitraryCorrectedZVertical,0.3012335526349098,-0.4374938479559416,-0.1444853040581599,0.8348540620092991,-0.6434394121170044,-0.6293949484825134,-0.4357149600982666,-12.85079956054688,-39.98717498779297,-26.51214599609375,-1,2,112247.9873875,unknown,2,2025-04-20T10:22:11.301-04:00,null,0,0,0,0,0,0,0,null,112248.598486,0,-0.0264225,101.6979,1745158932.803586,0.0.0.0,100.94.214.186,my_iOS_device,0,5,1745158932.768089,1,0.6,0
2025-04-20T10:22:14.365-04:00,54,1745158933.999825,40.31642790089516,-74.75843839341094,65.53586,0.04074257,1.079399,-1,-1,3,6.433348118989244,-9999,1745158934.352165,-19.45443725585938,-39.22828674316406,-23.19351196289062,231.648681640625,243.84033203125,11.12759208679199,112251.052766625,0.1063079833984375,0.5070037841796875,-0.344879150390625,112251.027722625,0.3025390803813934,-6.299075603485107,2.702943563461304,112251.036208625,427.8519897460938,-155.6602172851562,-392.3093872070312,112251.047757625,0.101894983700551,-1.228226311563613,0.5905948476882101,1.216333389282227,-4.249762535095215,5.609418869018555,1.141416311264038,0.7356119751930237,-0.215314656496048,XArbitraryCorrectedZVertical,0.2656160018391699,-0.5384640808504151,-0.127661463788936,0.7894347086981445,-0.7823466062545776,-0.5568552017211914,-0.2790091335773468,-22.3367919921875,-38.38743591308594,-21.8270263671875,-1,2,112247.9873875,unknown,2,2025-04-20T10:22:11.301-04:00,null,0,0,0,0,0,0,0,null,112248.598486,0,-0.0264225,101.6979,1745158932.803586,0.0.0.0,100.94.214.186,my_iOS_device,0,5,1745158932.768089,1,0.6,0
2025-04-20T10:22:14.402-04:00,55,1745158933.999825,40.31642790089516,-74.75843839341094,65.53586,0.04074257,1.079399,-1,-1,3,6.433348118989244,-9999,1745158934.392207,-31.1787109375,-34.10806274414062,-17.45620727539062,216.4370727539062,228.6287231445312,11.12839698791504,112251.082819625,-0.9775390625,0.733123779296875,-0.4334869384765625,112251.057775625,1.56735897064209,-2.938250064849854,6.527488708496094,112251.066443625,418.8550415039062,-151.8995666503906,-388.1195068359375,112251.047757625,0.101894983700551,-1.228226311563613,0.5905948476882101,1.216333389282227,-4.249762535095215,5.609418869018555,1.141416311264038,0.7356119751930237,-0.215314656496048,XArbitraryCorrectedZVertical,0.2656160018391699,-0.5384640808504151,-0.127661463788936,0.7894347086981445,-0.7823466062545776,-0.5568552017211914,-0.2790091335773468,-22.3367919921875,-38.38743591308594,-21.8270263671875,-1,2,112247.9873875,unknown,2,2025-04-20T10:22:11.301-04:00,null,0,0,0,0,0,0,0,null,112248.598486,0,-0.0264225,101.6979,1745158932.803586,0.0.0.0,100.94.214.186,my_iOS_device,0,5,1745158932.768089,1,0.6,0
2025-04-20T10:22:14.422-04:00,56,1745158933.999825,40.31642790089516,-74.75843839341094,65.53586,0.04074257,1.079399,-1,-1,3,6.433348118989244,-9999,1745158934.412146,-36.44088745117188,-30.17655944824219,-14.62225341796875,207.6055145263672,219.7971649169922,11.12875652313232,112251.112872625,-1.253829956054688,0.4300384521484375,-0.2334136962890625,112251.087828625,2.113147497177124,-1.940609574317932,6.862044811248779,112251.096675625,410.9833984375,-145.9547729492188,-383.6082153320312,112251.082819625,0.2370908602829113,-1.37787966718755,0.3775929638203594,2.127516269683838,-1.841046929359436,7.038908004760742,-0.06522822380065918,1.101807951927185,-0.2552706599235535,XArbitraryCorrectedZVertical,0.2177041167865099,-0.6029069143280563,-0.02880120071271396,0.766993262460507,-0.912310779094696,-0.3686840534210205,-0.1782163381576538,-31.1787109375,-34.10806274414062,-17.45620727539062,-1,2,112247.9873875,unknown,2,2025-04-20T10:22:11.301-04:00,null,0,0,0,0,0,0,0,null,112248.598486,0,-0.0264225,101.6979,1745158932.803586,0.0.0.0,100.94.214.186,my_iOS_device,0,5,1745158932.768089,1,0.6,0
2025-04-20T10:22:14.452-04:00,57,1745158933.999825,40.31642790089516,-74.75843839341094,65.53586,0.04074257,1.079399,-1,-1,3,6.433348118989244,-9999,1745158934.432346,-39.80609130859375,-26.64836120605469,-11.9752197265625,200.1646118164062,212.3562622070312,11.12900066375732,112251.142925625,-0.6964111328125,0.413665771484375,-0.0788116455078125,112251.117881625,2.113117933273315,-2.042168617248535,4.637385368347168,112251.126909625,406.3531494140625,-140.7379455566406,-379.5400390625,112251.117881625,0.3427813721298727,-1.475233097992966,0.1813045049972175,2.115606307983398,-2.043338060379028,4.638245582580566,-0.2747085094451904,0.6103513836860657,-0.1395598202943802,XArbitraryCorrectedZVertical,0.1802460774663138,-0.6485247928610847,0.06571286739719766,0.7366199057204075,-0.9791215062141418,-0.1803128570318222,-0.09385389089584351,-39.85183715820312,-26.70588684082031,-11.96359252929688,-1,2,112247.9873875,unknown,2,2025-04-20T10:22:11.301-04:00,null,0,0,0,0,0,0,0,null,112248.598486,0,-0.0264225,101.6979,1745158932.803586,0.0.0.0,100.94.214.186,my_iOS_device,0,5,1745158932.768089,1,0.6,0
2025-04-20T10:22:14.486-04:00,58,1745158933.999825,40.31642790089516,-74.75843839341094,65.53586,0.04074257,1.079399,-1,-1,3,6.433348118989244,-9999,1745158934.472273,-44.94775390625,-19.73648834228516,-5.165496826171875,183.403076171875,195.5947265625,11.12952709197998,112251.172978625,-0.9565582275390625,0.62847900390625,0.24334716796875,112251.147934625,3.416454553604126,-2.344343662261963,4.403015613555908,112251.157144625,403.0218811035156,-135.6022644042969,-374.0802612304688,112251.152943625,0.4538356375378728,-1.562242743692196,0.03493708164518226,3.509427070617676,-2.417121648788452,4.541776657104492,0.3657777905464172,0.5546444058418274,0.07214683294296265,XArbitraryCorrectedZVertical,0.1704618962832062,-0.6831314752662418,0.1477529006643509,0.6945812932053875,-0.9993531703948975,-0.03492997586727142,-0.008548258803784847,-43.82757568359375,-21.52474975585938,-7.04022216796875,-1,2,112247.9873875,unknown,2,2025-04-20T10:22:11.301-04:00,null,0,0,0,0,0,0,0,null,112248.598486,0,-0.0264225,101.6979,1745158932.803586,0.0.0.0,100.94.214.186,my_iOS_device,0,5,1745158932.768089,1,0.6,0
2025-04-20T10:22:14.524-04:00,59,1745158933.999825,40.31642790089516,-74.75843839341094,65.53586,0.04074257,1.079399,-1,-1,3,6.433348118989244,-9999,1745158934.512513,-48.00335693359375,-11.47870635986328,1.73626708984375,164.2918090820312,176.4834594726562,11.13007640838623,112251.203031625,-1.395553588867188,0.5692291259765625,0.0866851806640625,112251.177987625,3.354355573654175,-2.592917203903198,4.553811550140381,112251.187383625,400.8030395507812,-129.1373901367188,-368.969970703125,112251.188005625,0.5715026294517863,-1.645535818063069,-0.1298703982872135,3.359190702438354,-2.525579214096069,4.248208999633789,-0.2247820496559143,0.4944415688514709,0.1648045778274536,XArbitraryCorrectedZVertical,0.163842430370722,-0.7142662061981906,0.2369654317838747,0.6378297918196916,-0.9888105392456055,0.1295056343078613,0.07404111325740814,-47.37869262695312,-13.41858673095703,0.0897216796875,-1,2,112247.9873875,unknown,2,2025-04-20T10:22:11.301-04:00,null,0,0,0,0,0,0,0,null,112248.598486,0,-0.0264225,101.6979,1745158932.803586,0.0.0.0,100.94.214.186,my_iOS_device,0,5,1745158932.768089,1,0.6,0
2025-04-20T10:22:14.542-04:00,60,1745158933.999825,40.31642790089516,-74.75843839341094,65.53586,0.04074257,1.079399,-1,-1,3,6.433348118989244,-9999,1745158934.53243,-48.55911254882812,-7.560951232910156,4.261688232421875,154.6255645751953,166.8172149658203,11.13031482696533,112251.233084625,-1.284408569335938,0.5569915771484375,0.04827880859375,112251.208040625,3.876667976379395,-1.774810671806335,3.623174667358398,112251.217617625,399.7702941894531,-123.4325408935547,-365.0306701660156,112251.223067625,0.6966323869598419,-1.68525279523991,-0.2742736032988605,4.469433784484863,-0.9689105749130249,3.442924022674561,-0.3476006984710693,0.2642017304897308,-0.1356185674667358,XArbitraryCorrectedZVertical,0.166848015327807,-0.7260376747556999,0.3209246108365466,0.584840500428123,-0.9563237428665161,0.2708477675914764,0.1099379286170006,-48.55911254882812,-7.560951232910156,4.261688232421875,-1,2,112247.9873875,unknown,2,2025-04-20T10:22:11.301-04:00,null,0,0,0,0,0,0,0,null,112249.625509,0,-0.04756165,101.6982,1745158932.803586,0.0.0.0,100.94.214.186,my_iOS_device,0,5,1745158932.768089,1,0.6,0
2025-04-20T10:22:14.572-04:00,61,1745158933.999825,40.31642790089516,-74.75843839341094,65.53586,0.04074257,1.079399,-1,-1,3,6.433348118989244,-9999,1745158934.552374,-48.87295532226562,-3.785232543945312,5.7752685546875,144.8225555419922,157.0142059326172,11.13056182861328,112251.263138625,-1.607864379882812,0.601806640625,0.2421112060546875,112251.238093625,4.544073104858398,-0.2729351222515106,3.584675788879395,112251.247855625,399.4521484375,-117.2624053955078,-363.7207641601562,112251.258129625,0.8474433571402196,-1.643452487831543,-0.4157133097252833,3.795740127563477,0.2655539810657501,3.794204473495483,-0.5235744714736938,0.1632503271102905,0.1889920234680176,XArbitraryCorrectedZVertical,0.1665202904797304,-0.7109681568068704,0.4117131525342884,0.5452407413234722,-0.9124147891998291,0.4038425981998444,0.06640945374965668,-48.96640014648438,0.3630828857421875,6.016204833984375,-1,2,112247.9873875,unknown,2,2025-04-20T10:22:11.301-04:00,null,0,0,0,0,0,0,0,null,112249.625509,0,-0.04756165,101.6982,1745158932.803586,0.0.0.0,100.94.214.186,my_iOS_device,0,5,1745158932.768089,1,0.6,0
2025-04-20T10:22:14.603-04:00,62,1745158933.999825,40.31642790089516,-74.75843839341094,65.53586,0.04074257,1.079399,-1,-1,3,6.433348118989244,-9999,1745158934.592468,-48.91659545898438,4.440223693847656,5.186737060546875,128.7525024414062,140.9441528320312,11.13093852996826,112251.293191625,-1.983871459960938,0.8156585693359375,-0.070465087890625,112251.268146625,3.28855299949646,0.4433779716491699,3.739685773849487,112251.278090625,399.5270690917969,-111.3793182373047,-364.6887817382812,112251.258129625,0.8474433571402196,-1.643452487831543,-0.4157133097252833,3.795740127563477,0.2655539810657501,3.794204473495483,-0.5235744714736938,0.1632503271102905,0.1889920234680176,XArbitraryCorrectedZVertical,0.1665202904797304,-0.7109681568068704,0.4117131525342884,0.5452407413234722,-0.9124147891998291,0.4038425981998444,0.06640945374965668,-48.96640014648438,0.3630828857421875,6.016204833984375,-1,2,112247.9873875,unknown,2,2025-04-20T10:22:11.301-04:00,null,0,0,0,0,0,0,0,null,112249.625509,0,-0.04756165,101.6982,1745158932.803586,0.0.0.0,100.94.214.186,my_iOS_device,0,5,1745158932.768089,1,0.6,0
2025-04-20T10:22:14.640-04:00,63,1745158933.999825,40.31642790089516,-74.75843839341094,65.53586,0.04074257,1.079399,-1,-1,3,6.433348118989244,-9999,1745158934.615199,-48.75363159179688,7.7520751953125,4.51568603515625,122.9912490844727,135.1829071044922,11.1310510635376,112251.323244625,-2.103271484375,0.726593017578125,-0.0681915283203125,112251.298200625,2.44429612159729,0.7502705454826355,3.072587251663208,112251.308325625,399.9447937011719,-106.33740234375,-366.4880676269531,112251.293191625,0.9609353101504453,-1.57544228965353,-0.5447706843474799,2.43791389465332,0.5583083629608154,3.181875705718994,-1.128634452819824,0.2974365949630737,-0.07443857192993164,XArbitraryCorrectedZVertical,0.1471995856212342,-0.6930505002760646,0.4831248731389605,0.5143964455046891,-0.8552370071411133,0.5182219743728638,0.003973427694290876,-48.73922729492188,6.078575134277344,5.035125732421875,-1,2,112247.9873875,unknown,2,2025-04-20T10:22:11.301-04:00,null,0,0,0,0,0,0,0,null,112249.625509,0,-0.04756165,101.6982,1745158932.803586,0.0.0.0,100.94.214.186,my_iOS_device,0,5,1745158932.768089,1,0.6,0
2025-04-20T10:22:14.663-04:00,64,1745158933.999825,40.31642790089516,-74.75843839341094,65.53586,0.04074257,1.079399,-1,-1,3,6.433348118989244,-9999,1745158934.636846,-48.37161254882812,10.88592529296875,2.095977783203125,119.3200302124023,131.5116882324219,11.13121223449707,112251.353297625,-2.829055786132812,-0.3933868408203125,1.619003295898438,112251.328253625,1.597891330718994,5.833183288574219,2.600564479827881,112251.338565625,400.9757690429688,-102.6405029296875,-373.4723815917969,112251.328253625,1.065126554258619,-1.426683151179289,-0.6414393242127016,1.600373506546021,5.832010269165039,2.601419448852539,-1.310341954231262,0.1282438039779663,0.0468776673078537,XArbitraryCorrectedZVertical,0.1099363222390189,-0.6560330399493162,0.5420861476613132,0.5134952043691473,-0.7929295301437378,0.5983492732048035,-0.1150693073868752,-47.96963500976562,12.23014068603516,-0.293182373046875,-1,2,112247.9873875,unknown,2,2025-04-20T10:22:11.301-04:00,null,0,0,0,0,0,0,0,null,112249.625509,0,-0.04756165,101.6982,1745158932.803586,0.0.0.0,100.94.214.186,my_iOS_device,0,5,1745158932.768089,1,0.6,0
2025-04-20T10:22:14.692-04:00,65,1745158933.999825,40.31642790089516,-74.75843839341094,65.53586,0.04074257,1.079399,-1,-1,3,6.433348118989244,-9999,1745158934.636846,-48.37161254882812,10.88592529296875,2.095977783203125,119.3200302124023,131.5116882324219,11.13121223449707,112251.383350625,-1.306243896484375,0.67236328125,0.1673736572265625,112251.358306625,-2.808192491531372,2.619652509689331,0.1994047164916992,112251.368805625,401.4230346679688,-101.5812835693359,-376.6927490234375,112251.363315625,1.020600301957615,-1.315136551231294,-0.6918942591684326,-2.961215734481812,2.324137449264526,0.1009250804781914,-1.417541742324829,-0.6070368885993958,0.7274908423423767,XArbitraryCorrectedZVertical,0.04665537192494497,-0.6328175909111652,0.5445311745857355,0.5484988209981766,-0.7450100183486938,0.6379969716072083,-0.1947303414344788,-47.25579833984375,14.36046600341797,-5.973876953125,-1,2,112247.9873875,unknown,2,2025-04-20T10:22:11.301-04:00,null,0,0,0,0,0,0,0,null,112249.625509,0,-0.04756165,101.6982,1745158932.803586,0.0.0.0,100.94.214.186,my_iOS_device,0,5,1745158932.768089,1,0.6,0
2025-04-20T10:22:14.722-04:00,66,1745158933.999825,40.31642790089516,-74.75843839341094,65.53586,0.04074257,1.079399,-1,-1,3,6.433348118989244,-9999,1745158934.717957,-46.69186401367188,15.68424987792969,-7.42657470703125,126.5533676147461,138.7450256347656,11.13149452209473,112251.413403625,-1.03662109375,0.828765869140625,-0.392913818359375,112251.388359625,-2.449493408203125,0.9771785140037537,0.6365013718605042,112251.368805625,401.4230346679688,-101.5812835693359,-376.6927490234375,112251.398377625,0.9073450267601236,-1.340498633276413,-0.7294832553285743,-1.779881954193115,0.500258207321167,0.9038242697715759,-0.3527313470840454,0.1111645102500916,0.1082879155874252,XArbitraryCorrectedZVertical,0.003072585825430537,-0.6441286663608595,0.5200293157087829,0.5609441532723907,-0.7258360981941223,0.6664844751358032,-0.1701776385307312,-46.69186401367188,15.68424987792969,-7.42657470703125,-1,2,112247.9873875,unknown,2,2025-04-20T10:22:11.301-04:00,null,0,0,0,0,0,0,0,null,112249.625509,0,-0.04756165,101.6982,1745158932.803586,0.0.0.0,100.94.214.186,my_iOS_device,0,5,1745158932.768089,1,0.6,0
2025-04-20T10:22:14.760-04:00,67,1745158933.999825,40.31642790089516,-74.75843839341094,65.53586,0.04074257,1.079399,-1,-1,3,6.433348118989244,-9999,1745158934.735296,-46.44741821289062,16.7025146484375,-7.42803955078125,126.1525802612305,138.34423828125,11.13148212432861,112251.443456625,-1.328414916992188,1.085220336914062,-0.53192138671875,112251.418412625,-0.2770851254463196,-0.06288868188858032,0.6276689767837524,112251.421186625,402.0467529296875,-99.47908020019531,-377.087890625,112251.433439625,0.8921003244723753,-1.350464524813483,-0.7546852587762594,0.6860771179199219,-0.2806185483932495,-0.003930335864424706,-0.6527257561683655,0.3111868500709534,-0.331402599811554,XArbitraryCorrectedZVertical,-0.008768923689155682,-0.6483181685737742,0.5208251510851232,0.5552905800849679,-0.7108758091926575,0.6850594282150269,-0.1592133194208145,-46.41024780273438,16.97119140625,-7.437103271484375,-1,2,112247.9873875,unknown,2,2025-04-20T10:22:11.301-04:00,null,0,0,0,0,0,0,0,null,112249.625509,0,-0.04756165,101.6982,1745158932.803586,0.0.0.0,100.94.214.186,my_iOS_device,0,5,1745158932.768089,1,0.6,0
2025-04-20T10:22:14.782-04:00,68,1745158933.999825,40.31642790089516,-74.75843839341094,65.53586,0.04074257,1.079399,-1,-1,3,6.433348118989244,-9999,1745158934.774295,-46.35971069335938,17.17111968994141,-7.502166748046875,124.5696334838867,136.7612915039062,11.13098049163818,112251.473509625,-1.07537841796875,1.167434692382812,-0.649139404296875,112251.448465625,1.41466498374939,-0.1197263970971107,-0.3221268951892853,112251.451270625,402.073974609375,-99.22503662109375,-377.0784301757812,112251.468501625,0.9586012669039682,-1.309749448324991,-0.7350851714173682,2.011476516723633,0.02116050757467747,-0.07737571746110916,-0.4357469081878662,0.5332070589065552,-0.4793610572814941,XArbitraryCorrectedZVertical,0.009239830355277437,-0.635760709393972,0.5355173932700782,0.5558272879035788,-0.7166424989700317,0.6706503629684448,-0.1914458870887756,-46.36178588867188,17.16101837158203,-7.481414794921875,-1,2,112247.9873875,unknown,2,2025-04-20T10:22:11.301-04:00,null,0,0,0,0,0,0,0,null,112249.625509,0,-0.04756165,101.6982,1745158932.803586,0.0.0.0,100.94.214.186,my_iOS_device,0,5,1745158932.768089,1,0.6,0
2025-04-20T10:22:14.813-04:00,69,1745158933.999825,40.31642790089516,-74.75843839341094,65.53586,0.04074257,1.079399,-1,-1,3,6.433348118989244,-9999,1745158934.793432,-46.43203735351562,16.67514038085938,-7.845489501953125,123.0125045776367,135.2041625976562,11.12960720062256,112251.503563625,-0.8639068603515625,0.5006103515625,-0.02947998046875,112251.478518625,2.026118516921997,-0.3078121542930603,0.09080420434474945,112251.481354625,401.9337158203125,-99.98979187011719,-377.6293334960938,112251.468501625,0.9586012669039682,-1.309749448324991,-0.7350851714173682,2.011476516723633,0.02116050757467747,-0.07737571746110916,-0.4357469081878662,0.5332070589065552,-0.4793610572814941,XArbitraryCorrectedZVertical,0.009239830355277437,-0.635760709393972,0.5355173932700782,0.5558272879035788,-0.7166424989700317,0.6706503629684448,-0.1914458870887756,-46.36178588867188,17.16101837158203,-7.481414794921875,-1,2,112247.9873875,unknown,2,2025-04-20T10:22:11.301-04:00,null,0,0,0,0,0,0,0,null,112249.625509,0,-0.04756165,101.6982,1745158932.803586,0.0.0.0,100.94.214.186,my_iOS_device,0,5,1745158932.768089,1,0.6,0
2025-04-20T10:22:14.843-04:00,70,1745158933.999825,40.31642790089516,-74.75843839341094,65.53586,0.04074257,1.079399,-1,-1,3,6.433348118989244,-9999,1745158934.832909,-46.65966796875,16.16170501708984,-7.56842041015625,119.9726638793945,132.1643218994141,11.12074661254883,112251.533616625,-1.284133911132812,0.96942138671875,-0.720001220703125,112251.508571625,1.060102105140686,-0.6737387180328369,0.01491529960185289,112251.511440625,401.7381591796875,-100.3437042236328,-377.4118957519531,112251.503563625,1.04215938924696,-1.280450017111817,-0.7217486532908665,1.240861058235168,-0.8782758116722107,0.0833299309015274,-0.1446739435195923,-0.1600880026817322,0.1854195147752762,XArbitraryCorrectedZVertical,0.03264364813451675,-0.6256873185478125,0.5564497287233816,0.5457228074148128,-0.7192327976226807,0.6606982946395874,-0.2148995399475098,-46.53451538085938,16.27285003662109,-7.960845947265625,-1,2,112247.9873875,unknown,2,2025-04-20T10:22:11.301-04:00,null,0,0,0,0,0,0,0,null,112249.625509,0,-0.04756165,101.6982,1745158932.803586,0.0.0.0,100.94.214.186,my_iOS_device,0,5,1745158932.768089,1,0.6,0
2025-04-20T10:22:14.883-04:00,71,1745158933.999825,40.31642790089516,-74.75843839341094,65.53586,0.04074257,1.079399,-1,-1,3,6.433348118989244,-9999,1745158934.873299,-47.0584716796875,15.68356323242188,-5.802978515625,115.1252670288086,127.3169250488281,11.11961650848389,112251.563669625,-0.4118194580078125,0.255126953125,1.49810791015625,112251.538625625,2.787733554840088,-2.479165315628052,-0.2335738688707352,112251.541523625,401.5321655273438,-100.6012420654297,-376.52880859375,112251.538625625,1.102932474967765,-1.285303241360595,-0.7024462910974186,2.790209531784058,-2.480341911315918,-0.2327239066362381,-0.5517646074295044,0.3233345746994019,-0.5050427913665771,XArbitraryCorrectedZVertical,0.06025200480053045,-0.6236108138656457,0.5694392204456391,0.532182516027826,-0.7323692440986633,0.6460868120193481,-0.2149585038423538,-46.75714111328125,16.08442687988281,-7.31787109375,-1,2,112247.9873875,unknown,2,2025-04-20T10:22:11.301-04:00,null,0,0,0,0,0,0,0,null,112249.625509,0,-0.04756165,101.6982,1745158932.803586,0.0.0.0,100.94.214.186,my_iOS_device,0,5,1745158932.768089,1,0.6,0
2025-04-20T10:22:14.903-04:00,72,1745158933.999825,40.31642790089516,-74.75843839341094,65.53586,0.04074257,1.079399,-1,-1,3,6.433348118989244,-9999,1745158934.89293,-47.14599609375,16.00431823730469,-5.033477783203125,113.9774169921875,126.169075012207,11.11915969848633,112251.593722625,-0.853485107421875,0.5510101318359375,-0.3191070556640625,112251.568678625,-0.4119233787059784,-0.802234947681427,0.9643855094909668,112251.571609625,401.2334594726562,-100.8551788330078,-374.9860534667969,112251.573687625,1.156897883792953,-1.294123238559447,-0.7119499417030898,-0.1247296929359436,-0.5329856872558594,0.8022304773330688,-0.2325184941291809,-0.4965883493423462,0.0007493048906326294,XArbitraryCorrectedZVertical,0.07610727278155133,-0.6251445097766325,0.5847768726170035,0.5113099416736324,-0.7282967567443848,0.6533113121986389,-0.2068040519952774,-47.12136840820312,15.71379089355469,-5.447662353515625,-1,2,112247.9873875,unknown,2,2025-04-20T10:22:11.301-04:00,null,0,0,0,0,0,0,0,null,112249.625509,0,-0.04756165,101.6982,1745158932.803586,0.0.0.0,100.94.214.186,my_iOS_device,0,5,1745158932.768089,1,0.6,0
2025-04-20T10:22:14.933-04:00,73,1745158933.999825,40.31642790089516,-74.75843839341094,65.53586,0.04074257,1.079399,-1,-1,3,6.433348118989244,-9999,1745158934.913075,-47.10330200195312,16.56111907958984,-4.421478271484375,113.2754898071289,125.4671478271484,11.11875057220459,112251.623775375,-0.25,0.268646240234375,0.2750701904296875,112251.598731625,0.4838005006313324,-0.6321534514427185,-0.1241957172751427,112251.601691625,401.2680053710938,-99.93588256835938,-374.0022583007812,112251.608749625,1.179692327920809,-1.295578189937841,-0.7103979539904657,0.1328552067279816,-0.4848982095718384,-0.04559867084026337,0.5560337901115417,-0.1599327921867371,0.5920820236206055,XArbitraryCorrectedZVertical,0.08422939118303807,-0.6244162487213516,0.5902606087372009,0.504581099445901,-0.7295718789100647,0.6521354913711548,-0.2060195207595825,-47.10330200195312,16.56111907958984,-4.421478271484375,-1,2,112247.9873875,unknown,2,2025-04-20T10:22:11.301-04:00,null,0,0,0,0,0,0,0,null,112249.625509,0,-0.04756165,101.6982,1745158932.803586,0.0.0.0,100.94.214.186,my_iOS_device,0,5,1745158932.768089,1,0.6,0
2025-04-20T10:22:14.967-04:00,74,1745158933.999825,40.31642790089516,-74.75843839341094,65.53586,0.04074257,1.079399,-1,-1,3,6.433348118989244,-9999,1745158934.953362,-47.37161254882812,16.34362030029297,-3.666473388671875,112.6914672851562,124.8831253051758,11.11573600769043,112251.653828375,-0.49139404296875,0.427490234375,-0.065582275390625,112251.628784375,0.2904134392738342,-0.7711480855941772,-0.4494422674179077,112251.631774375,401.1248474121094,-100.1998138427734,-373.291748046875,112251.643811375,1.189470784711909,-1.31431594532416,-0.6964228395187294,0.4436554312705994,-0.5580685138702393,-0.5458143949508667,0.1064580082893372,-0.1818677186965942,0.01224882900714874,XArbitraryCorrectedZVertical,0.09795628123854355,-0.6269778567602483,0.5896255259708368,0.4996447792338733,-0.7420474886894226,0.6414775848388672,-0.1946066617965698,-47.37161254882812,16.34362030029297,-3.666473388671875,-1,2,112247.9873875,unknown,2,2025-04-20T10:22:11.301-04:00,null,0,0,0,0,0,0,0,null,112249.625509,0,-0.04756165,101.6982,1745158932.803586,0.0.0.0,100.94.214.186,my_iOS_device,0,5,1745158932.768089,1,0.6,0
2025-04-20T10:22:15.005-04:00,75,1745158933.999825,40.31642790089516,-74.75843839341094,65.53586,0.04074257,1.079399,-1,-1,3,6.433348118989244,-9999,1745158934.993304,-47.81723022460938,15.39845275878906,-2.63458251953125,111.5882110595703,123.7798690795898,11.11481380462646,112251.683882375,-0.7313385009765625,0.5346221923828125,-0.495880126953125,112251.658837375,0.431827574968338,-0.9635300636291504,-0.4088783264160156,112251.661860375,400.7620239257812,-100.7987823486328,-372.8141479492188,112251.678873375,1.206994547095733,-1.332913542264925,-0.6817451055301009,0.5795313119888306,-0.7537341713905334,-0.02769273892045021,0.3176268339157104,-0.1754828691482544,-0.05596476793289185,XArbitraryCorrectedZVertical,0.1143047040544097,-0.6288466295257342,0.5905828659907693,0.4926441045409319,-0.7546079754829407,0.6301490068435669,-0.1829726994037628,-47.69998168945312,15.60610961914062,-2.885650634765625,-1,2,112247.9873875,unknown,2,2025-04-20T10:22:11.301-04:00,null,0,0,0,0,0,0,0,null,112249.625509,0,-0.04756165,101.6982,1745158932.803586,0.0.0.0,100.94.214.186,my_iOS_device,0,5,1745158932.768089,1,0.6,0
2025-04-20T10:22:15.023-04:00,76,1745158933.999825,40.31642790089516,-74.75843839341094,65.53586,0.04074257,1.079399,-1,-1,3,6.433348118989244,-9999,1745158935.013223,-47.99008178710938,15.264404296875,-2.052825927734375,110.9873504638672,123.1790084838867,11.11451721191406,112251.713935375,-0.9595184326171875,0.4919586181640625,-1.076614379882812,112251.688890375,1.242393136024475,0.001162469852715731,-0.2700213491916656,112251.691938375,400.4009704589844,-101.2948303222656,-371.8456115722656,112251.678873375,1.206994547095733,-1.332913542264925,-0.6817451055301009,0.5795313119888306,-0.7537341713905334,-0.02769273892045021,0.3176268339157104,-0.1754828691482544,-0.05596476793289185,XArbitraryCorrectedZVertical,0.1143047040544097,-0.6288466295257342,0.5905828659907693,0.4926441045409319,-0.7546079754829407,0.6301490068435669,-0.1829726994037628,-47.69998168945312,15.60610961914062,-2.885650634765625,-1,2,112247.9873875,unknown,2,2025-04-20T10:22:11.301-04:00,null,0,0,0,0,0,0,0,null,112249.625509,0,-0.04756165,101.6982,1745158932.803586,0.0.0.0,100.94.214.186,my_iOS_device,0,5,1745158932.768089,1,0.6,0
2025-04-20T10:22:15.053-04:00,77,1745158933.999825,40.31642790089516,-74.75843839341094,65.53586,0.04074257,1.079399,-1,-1,3,6.433348118989244,-9999,1745158935.033275,-48.17141723632812,14.69110870361328,-2.9066162109375,110.3572616577148,122.5489196777344,11.11377143859863,112251.743988375,-0.560791015625,0.112396240234375,0.19647216796875,112251.718944375,0.9755358695983887,-0.3214230239391327,-0.2931815385818481,112251.722023375,400.1869812011719,-101.9947814941406,-372.8062133789062,112251.713935375,1.282916488002988,-1.277339907365136,-0.647531728259703,2.071860313415527,0.06745079159736633,-0.6443794369697571,-0.1960397362709045,-0.1112610101699829,-0.8459057807922363,XArbitraryCorrectedZVertical,0.1335121050613327,-0.6056568288229456,0.6074131846580594,0.496390470619311,-0.7634785771369934,0.6032196283340454,-0.2307086437940598,-48.08782958984375,15.03147125244141,-2.398681640625,-1,2,112247.9873875,unknown,2,2025-04-20T10:22:11.301-04:00,null,0,0,0,0,0,0,0,null,112249.625509,0,-0.04756165,101.6982,1745158932.803586,0.0.0.0,100.94.214.186,my_iOS_device,0,5,1745158932.768089,1,0.6,0
2025-04-20T10:22:15.086-04:00,78,1745158934.999814,40.31642468292142,-74.75843734508713,65.54723,0.04236664,1.085592,-1,-1,3,6.391705927628528,-9999,1745158935.074083,-48.22433471679688,14.18862915039062,-3.791473388671875,111.8098297119141,124.0014877319336,11.11339282989502,112251.774041375,-0.1695098876953125,0.4165802001953125,0.0544891357421875,112251.748997375,-0.8207931518554688,0.7909870743751526,-0.09145081788301468,112251.752104375,400.15576171875,-102.3946685791016,-373.333740234375,112251.748997375,1.27617661866999,-1.271342576196086,-0.6469938584207344,-0.8183215260505676,0.7898079752922058,-0.09060429781675339,0.2016001343727112,-0.4903943538665771,0.4318510293960571,XArbitraryCorrectedZVertical,0.1298484332171276,-0.6045245331104259,0.6060478482868858,0.5003951437928936,-0.7623910307884216,0.6027905344963074,-0.2353789508342743,-48.18472290039062,14.14051055908203,-3.51702880859375,-1,2,112247.9873875,unknown,2,2025-04-20T10:22:11.301-04:00,null,0,0,0,0,0,0,0,null,112249.625509,0,-0.04756165,101.6982,1745158932.803586,0.0.0.0,100.94.214.186,my_iOS_device,0,5,1745158932.768089,1,0.6,0
2025-04-20T10:22:15.125-04:00,79,1745158934.999814,40.31642468292142,-74.75843734508713,65.54723,0.04236664,1.085592,-1,-1,3,6.391705927628528,-9999,1745158935.11369,-48.15325927734375,14.21002197265625,-3.73822021484375,112.0353698730469,124.2270278930664,11.11327648162842,112251.804094375,-0.1755523681640625,0.26116943359375,-0.1710357666015625,112251.779050375,-0.4454762637615204,-0.2988181114196777,-0.1637455224990845,112251.782184375,400.243408203125,-102.2611999511719,-373.782470703125,112251.784059375,1.251700437659366,-1.281743393279382,-0.6505372193205743,-0.3378285765647888,-0.4808714389801025,-0.2258865386247635,0.5637255907058716,-0.2117540836334229,0.2312515676021576,XArbitraryCorrectedZVertical,0.1242697984429801,-0.6092156225397684,0.5997824645456579,0.5036610127263511,-0.7627460360527039,0.6056140065193176,-0.2268266826868057,-48.1600341796875,14.28005981445312,-4.04644775390625,-1,2,112247.9873875,unknown,2,2025-04-20T10:22:11.301-04:00,null,0,0,0,0,0,0,0,null,112249.625509,0,-0.04756165,101.6982,1745158932.803586,0.0.0.0,100.94.214.186,my_iOS_device,0,5,1745158932.768089,1,0.6,0
2025-04-20T10:22:15.143-04:00,80,1745158934.999814,40.31642468292142,-74.75843734508713,65.54723,0.04236664,1.085592,-1,-1,3,6.391705927628528,-9999,1745158935.133509,-48.30328369140625,13.99738311767578,-2.983642578125,111.1674346923828,123.3590927124023,11.11326694488525,112251.834148375,-0.42913818359375,0.2325592041015625,-0.1171722412109375,112251.809103375,0.1392226070165634,-1.281680583953857,-0.1235421746969223,112251.812269375,400.1243286132812,-102.5147094726562,-372.9833679199219,112251.819121375,1.250375714530348,-1.319547822493538,-0.6446556804723338,0.3224484026432037,-1.410405039787292,-0.02965256758034229,0.5187023878097534,-0.3223282694816589,0.02815556526184082,XArbitraryCorrectedZVertical,0.1372962117734196,-0.6178920181182569,0.5960474915015843,0.4940512045336607,-0.7742106914520264,0.6009232401847839,-0.1987184137105942,-48.24166870117188,14.07791900634766,-3.40411376953125,-1,2,112247.9873875,unknown,2,2025-04-20T10:22:11.301-04:00,null,0,0,0,0,0,0,0,null,112249.625509,0,-0.04756165,101.6982,1745158932.803586,0.0.0.0,100.94.214.186,my_iOS_device,0,5,1745158932.768089,1,0.6,0
2025-04-20T10:22:15.173-04:00,81,1745158934.999814,40.31642468292142,-74.75843734508713,65.54723,0.04236664,1.085592,-1,-1,3,6.391705927628528,-9999,1745158935.153429,-48.37887573242188,13.93817901611328,-1.806060791015625,109.7007751464844,121.8924331665039,11.11327457427979,112251.864201375,-0.5,0.092987060546875,-0.0857696533203125,112251.839157375,0.4774954617023468,-1.48599112033844,0.3319140374660492,112251.842348375,399.97314453125,-102.6156005859375,-371.2494812011719,112251.854183375,1.272124034622697,-1.352374238264828,-0.6513879128411426,0.3716978430747986,-0.3231115937232971,0.7370747327804565,0.2960934638977051,-0.4078959822654724,0.2887299656867981,XArbitraryCorrectedZVertical,0.1514573618410953,-0.6252201875636766,0.6000499470033127,0.4755000405822446,-0.7763484120368958,0.6062906980514526,-0.172320768237114,-48.39508056640625,13.98350524902344,-1.177398681640625,-1,2,112247.9873875,unknown,2,2025-04-20T10:22:11.301-04:00,null,0,0,0,0,0,0,0,null,112249.625509,0,-0.04756165,101.6982,1745158932.803586,0.0.0.0,100.94.214.186,my_iOS_device,0,5,1745158932.768089,1,0.6,0
2025-04-20T10:22:15.205-04:00,82,1745158934.999814,40.31642468292142,-74.75843734508713,65.54723,0.04236664,1.085592,-1,-1,3,6.391705927628528,-9999,1745158935.193712,-48.0831298828125,14.76376342773438,-0.275482177734375,106.9949951171875,119.186653137207,11.11331462860107,112251.894254375,-0.81085205078125,0.5570831298828125,-0.25970458984375,112251.869210375,-0.2531539797782898,-0.4874972403049469,0.9345261454582214,112251.872427375,400.2275695800781,-101.9655303955078,-369.9904174804688,112251.889245375,1.265573338793428,-1.393615768015626,-0.6834181604837877,-0.7996307015419006,-3.153991460800171,0.7492365837097168,0.2295269966125488,-0.3546527624130249,0.08471512794494629,XArbitraryCorrectedZVertical,0.1503689483793744,-0.6395728751640747,0.6007330699621268,0.4554728258914499,-0.7632793188095093,0.6314471960067749,-0.1366714388132095,-48.0831298828125,14.76376342773438,-0.275482177734375,-1,2,112247.9873875,unknown,2,2025-04-20T10:22:11.301-04:00,null,0,0,0,0,0,0,0,null,112249.625509,0,-0.04756165,101.6982,1745158932.803586,0.0.0.0,100.94.214.186,my_iOS_device,0,5,1745158932.768089,1,0.6,0
2025-04-20T10:22:15.246-04:00,83,1745158934.999814,40.31642468292142,-74.75843734508713,65.54723,0.04236664,1.085592,-1,-1,3,6.391705927628528,-9999,1745158935.233735,-47.307373046875,16.569091796875,3.51043701171875,101.9434509277344,114.1351089477539,11.113450050354,112251.924307375,-1.1046142578125,1.167327880859375,-0.1832733154296875,112251.899263375,-0.5049188137054443,-2.329390525817871,0.9467023611068726,112251.902511375,400.6540222167969,-100.6173706054688,-368.1152648925781,112251.889245375,1.265573338793428,-1.393615768015626,-0.6834181604837877,-0.7996307015419006,-3.153991460800171,0.7492365837097168,0.2295269966125488,-0.3546527624130249,0.08471512794494629,XArbitraryCorrectedZVertical,0.1503689483793744,-0.6395728751640747,0.6007330699621268,0.4554728258914499,-0.7632793188095093,0.6314471960067749,-0.1366714388132095,-48.0831298828125,14.76376342773438,-0.275482177734375,-1,2,112247.9873875,unknown,2,2025-04-20T10:22:11.301-04:00,null,0,0,0,0,0,0,0,null,112249.625509,0,-0.04756165,101.6982,1745158932.803586,0.0.0.0,100.94.214.186,my_iOS_device,0,5,1745158932.768089,1,0.6,0
2025-04-20T10:22:15.263-04:00,84,1745158934.999814,40.31642468292142,-74.75843734508713,65.54723,0.04236664,1.085592,-1,-1,3,6.391705927628528,-9999,1745158935.253647,-46.7574462890625,17.88074493408203,5.91357421875,98.52721405029297,110.7188720703125,11.11351013183594,112251.954361375,-0.8627777099609375,0.8121795654296875,0.0115509033203125,112251.929316375,-0.2811461985111237,-2.602910280227661,1.574286341667175,112251.932596375,401.3486328125,-99.03125,-364.4942626953125,112251.924307375,1.253086083972021,-1.487875946354862,-0.7233875614487569,-0.2492488324642181,-2.611021757125854,1.486793637275696,-0.3576220273971558,0.5054001212120056,-0.1211901903152466,XArbitraryCorrectedZVertical,0.1604617678201037,-0.6657404968369018,0.5976390896728516,0.416976015511548,-0.7469921112060547,0.6619277000427246,-0.06208322569727898,-47.307373046875,16.569091796875,3.51043701171875,-1,2,112247.9873875,unknown,2,2025-04-20T10:22:11.301-04:00,null,0,0,0,0,0,0,0,null,112249.625509,0,-0.04756165,101.6982,1745158932.803586,0.0.0.0,100.94.214.186,my_iOS_device,0,5,1745158932.768089,1,0.6,0
2025-04-20T10:22:15.294-04:00,85,1745158934.999814,40.31642468292142,-74.75843734508713,65.54723,0.04236664,1.085592,-1,-1,3,6.391705927628528,-9999,1745158935.273799,-45.80300903320312,19.54637908935547,7.971832275390625,95.19142150878906,107.3830795288086,11.11354637145996,112251.984414375,-0.51513671875,0.874908447265625,0.24188232421875,112251.959370375,0.1323066353797913,-0.8966889977455139,2.284371376037598,112251.962678375,402.7090454101562,-96.59837341308594,-361.3232727050781,112251.959370375,1.245949429010376,-1.553836898250341,-0.7922646470665998,0.1347742080688477,-0.8978704214096069,2.28521466255188,-0.1606438159942627,0.1002342104911804,0.02345973066985607,XArbitraryCorrectedZVertical,0.1539175297538911,-0.6858242695712834,0.6035275160213084,0.3764425830870771,-0.70213383436203,0.7119454145431519,-0.01190893072634935,-46.32052612304688,18.64175415039062,7.005340576171875,-1,2,112247.9873875,unknown,2,2025-04-20T10:22:11.301-04:00,null,0,0,0,0,0,0,0,null,112249.625509,0,-0.04756165,101.6982,1745158932.803586,0.0.0.0,100.94.214.186,my_iOS_device,0,5,1745158932.768089,1,0.6,0
2025-04-20T10:22:15.326-04:00,86,1745158934.999814,40.31642468292142,-74.75843734508713,65.54723,0.04236664,1.085592,-1,-1,3,6.391705927628528,-9999,1745158935.313746,-43.79489135742188,23.45972442626953,9.7401123046875,88.28958892822266,100.4812469482422,11.11359405517578,112252.014467375,-0.6023406982421875,1.056198120117188,0.003448486328125,112251.989423375,0.8604271411895752,-1.373048067092896,1.549821257591248,112251.992755375,404.2462768554688,-93.50514221191406,-360.0755004882812,112251.994432375,1.27530878191238,-1.568951194033825,-0.8604345244382414,0.9326372742652893,-1.495020985603333,1.289246559143066,0.1933057904243469,0.1173775196075439,0.1511512398719788,XArbitraryCorrectedZVertical,0.1450588889697383,-0.6916330718592014,0.6196845396231453,0.3414566759196689,-0.6521069407463074,0.7581260204315186,-0.001203225227072835,-44.27069091796875,22.59673309326172,9.463287353515625,-1,2,112247.9873875,unknown,2,2025-04-20T10:22:11.301-04:00,null,0,0,0,0,0,0,0,null,112249.625509,0,-0.04756165,101.6982,1745158932.803586,0.0.0.0,100.94.214.186,my_iOS_device,0,5,1745158932.768089,1,0.6,0
2025-04-20T10:22:15.366-04:00,87,1745158934.999814,40.31642468292142,-74.75843734508713,65.54723,0.04236664,1.085592,-1,-1,3,6.391705927628528,-9999,1745158935.353879,-42.4107666015625,25.0413818359375,11.62493896484375,84.54757690429688,96.73923492431641,11.11359786987305,112252.044520375,-0.630340576171875,1.17352294921875,0.1001434326171875,112252.019476375,0.7369712591171265,-1.546112775802612,0.07689344882965088,112252.022843375,405.5298156738281,-91.61863708496094,-358.8818054199219,112252.029494375,1.318523932170419,-1.588494744942821,-0.8759326628071855,0.4705410599708557,-1.617786407470703,-0.06645447760820389,0.03829753398895264,0.2588212490081787,-0.102105975151062,XArbitraryCorrectedZVertical,0.1607681590855694,-0.6926898876744622,0.6278892818848968,0.3163689582857738,-0.6401803493499756,0.7681410312652588,0.01133136264979839,-42.93789672851562,24.6904296875,10.62673950195312,-1,2,112247.9873875,unknown,2,2025-04-20T10:22:11.301-04:00,null,0,0,0,0,0,0,0,null,112249.625509,0,-0.04756165,101.6982,1745158932.803586,0.0.0.0,100.94.214.186,my_iOS_device,0,5,1745158932.768089,1,0.6,0
2025-04-20T10:22:15.384-04:00,88,1745158934.999814,40.31642468292142,-74.75843734508713,65.54723,0.04236664,1.085592,-1,-1,3,6.391705927628528,-9999,1745158935.373969,-42.06344604492188,25.16631317138672,12.5269775390625,83.87624359130859,96.06790161132812,11.11357402801514,112252.074574375,-0.7908477783203125,1.0704345703125,0.06109619140625,112252.049529375,-0.2456672936677933,-0.6465896964073181,0.3340168595314026,112252.052922375,406.1361694335938,-91.42304992675781,-357.3797607421875,112252.064556375,1.312522542873366,-1.622787201961392,-0.8851163302460039,-0.4282860457897186,-0.08945585042238235,0.5446874499320984,-0.08237791061401367,0.3189219832420349,0.02423834428191185,XArbitraryCorrectedZVertical,0.1662828377362018,-0.699144401949391,0.6256889633597715,0.3034144140968371,-0.6323436498641968,0.773988664150238,0.03290575370192528,-42.06344604492188,25.16631317138672,12.5269775390625,-1,2,112247.9873875,unknown,2,2025-04-20T10:22:11.301-04:00,null,0,0,0,0,0,0,0,null,112249.625509,0,-0.04756165,101.6982,1745158932.803586,0.0.0.0,100.94.214.186,my_iOS_device,0,5,1745158932.768089,1,0.6,0
2025-04-20T10:22:15.415-04:00,89,1745158934.999814,40.31642468292142,-74.75843734508713,65.54723,0.04236664,1.085592,-1,-1,3,6.391705927628528,-9999,1745158935.393955,-41.68960571289062,25.33130645751953,13.10763549804688,83.72529602050781,95.91695404052734,11.11353969573975,112252.104627375,-0.7551116943359375,1.022323608398438,0.0379486083984375,112252.079583375,-0.3514536321163177,0.1945058256387711,0.3810464143753052,112252.083005375,406.7117614746094,-91.12747192382812,-356.5238647460938,112252.099618375,1.296285433650194,-1.627014017968753,-0.8982774369697567,-0.02986136451363564,0.7008228302001953,0.3120530247688293,-0.1993300914764404,0.2573873400688171,0.0320899486541748,XArbitraryCorrectedZVertical,0.1574216142824098,-0.7019400631217293,0.6251270715088346,0.3028443293790981,-0.6219741702079773,0.7822549939155579,0.03500283509492874,-41.58416748046875,25.56631469726562,13.27474975585938,-1,2,112247.9873875,unknown,2,2025-04-20T10:22:11.301-04:00,null,0,0,0,0,0,0,0,null,112249.625509,0,-0.04756165,101.6982,1745158932.803586,0.0.0.0,100.94.214.186,my_iOS_device,0,5,1745158932.768089,1,0.6,0
2025-04-20T10:22:15.445-04:00,90,1745158934.999814,40.31642468292142,-74.75843734508713,65.54723,0.04236664,1.085592,-1,-1,3,6.391705927628528,-9999,1745158935.434092,-41.58880615234375,25.90833282470703,13.06051635742188,84.83090209960938,97.02256011962891,11.11354351043701,112252.134680375,-0.533935546875,0.8753662109375,0.199005126953125,112252.109636375,0.07952731847763062,1.253549695014954,0.27828249335289,112252.113086375,406.7567138671875,-90.55252075195312,-356.7136535644531,112252.099618375,1.296285433650194,-1.627014017968753,-0.8982774369697567,-0.02986136451363564,0.7008228302001953,0.3120530247688293,-0.1993300914764404,0.2573873400688171,0.0320899486541748,XArbitraryCorrectedZVertical,0.1574216142824098,-0.7019400631217293,0.6251270715088346,0.3028443293790981,-0.6219741702079773,0.7822549939155579,0.03500283509492874,-41.58416748046875,25.56631469726562,13.27474975585938,-1,2,112247.9873875,unknown,2,2025-04-20T10:22:11.301-04:00,null,0,0,0,0,0,0,0,null,112249.625509,0,-0.04756165,101.6982,1745158932.803586,0.0.0.0,100.94.214.186,my_iOS_device,0,5,1745158932.768089,1,0.6,0
2025-04-20T10:22:15.486-04:00,91,1745158934.999814,40.31642468292142,-74.75843734508713,65.54723,0.04236664,1.085592,-1,-1,3,6.391705927628528,-9999,1745158935.474015,-41.542724609375,25.76063537597656,10.38461303710938,86.38241577148438,98.57407379150391,11.11362743377686,112252.164734375,-0.3134002685546875,0.9339447021484375,0.0530548095703125,112252.139689375,-0.1717989295721054,1.202076554298401,0.08579958975315094,112252.147529375,406.6563415527344,-91.0208740234375,-359.4371643066406,112252.134680375,1.298506457273669,-1.579370271043528,-0.9056310542531305,-0.09056936949491501,1.339365482330322,0.03869142383337021,0.08323079347610474,0.08855128288269043,0.1937133073806763,XArbitraryCorrectedZVertical,0.1407140529157514,-0.6948707753208954,0.6302435141129535,0.3164602443378706,-0.6171661615371704,0.78681480884552,0.005291678011417389,-41.58880615234375,25.90833282470703,13.06051635742188,-1,2,112247.9873875,unknown,2,2025-04-20T10:22:11.301-04:00,null,0,0,0,0,0,0,0,null,112249.625509,0,-0.04756165,101.6982,1745158932.803586,0.0.0.0,100.94.214.186,my_iOS_device,0,5,1745158932.768089,1,0.6,0
2025-04-20T10:22:15.504-04:00,92,1745158934.999814,40.31642468292142,-74.75843734508713,65.54723,0.04236664,1.085592,-1,-1,3,6.391705927628528,-9999,1745158935.494078,-40.97103881835938,26.60881805419922,9.384307861328125,86.04210662841797,98.2337646484375,11.11360359191895,112252.194787375,-0.5160064697265625,0.8124542236328125,-0.069793701171875,112252.169742375,-0.02470534667372704,1.316375255584717,1.218444108963013,112252.177769375,407.4505615234375,-89.70309448242188,-360.4541320800781,112252.169742375,1.289450075952477,-1.548192061299726,-0.9241286917212196,-0.02224091067910194,1.315191984176636,1.219284772872925,0.2889759540557861,0.1358485817909241,0.06667327880859375,XArbitraryCorrectedZVertical,0.1212887624314209,-0.6917223007743561,0.6337531329134201,0.3242933319294649,-0.6023761034011841,0.7980960607528687,-0.01361858937889338,-41.25128173828125,26.08295440673828,9.772064208984375,-1,2,112247.9873875,unknown,2,2025-04-20T10:22:11.301-04:00,null,0,0,0,0,0,0,0,null,112249.625509,0,-0.04756165,101.6982,1745158932.803586,0.0.0.0,100.94.214.186,my_iOS_device,0,5,1745158932.768089,1,0.6,0
2025-04-20T10:22:15.534-04:00,93,1745158934.999814,40.31642468292142,-74.75843734508713,65.54723,0.04236664,1.085592,-1,-1,3,6.391705927628528,-9999,1745158935.514942,-40.88970947265625,28.42539978027344,7.037200927734375,85.87039184570312,98.06204986572266,11.11364269256592,112252.224840375,-0.316436767578125,0.54754638671875,-0.0494384765625,112252.199796375,0.764726459980011,3.192118883132935,2.114243030548096,112252.208013375,407.7594604492188,-86.65785217285156,-365.0113525390625,112252.204805375,1.325940066668345,-1.436568014918336,-0.9857696404293846,0.8945709466934204,3.426985025405884,2.236253261566162,0.01611101627349854,-0.102893054485321,0.04725939780473709,XArbitraryCorrectedZVertical,0.07602293592331177,-0.6762172995648312,0.6536716497101838,0.3311553647006679,-0.5472540259361267,0.8336973786354065,-0.07390135526657104,-40.88970947265625,28.42539978027344,7.037200927734375,-1,2,112247.9873875,unknown,2,2025-04-20T10:22:11.301-04:00,null,0,0,0,0,0,0,0,null,112249.625509,0,-0.04756165,101.6982,1745158932.803586,0.0.0.0,100.94.214.186,my_iOS_device,0,5,1745158932.768089,1,0.6,0
2025-04-20T10:22:15.565-04:00,94,1745158934.999814,40.31642468292142,-74.75843734508713,65.54723,0.04236664,1.085592,-1,-1,3,6.391705927628528,-9999,1745158935.554145,-39.01193237304688,31.96714019775391,2.08642578125,83.20280456542969,95.39446258544922,11.11369037628174,112252.254893375,-0.9028472900390625,0.5563812255859375,-0.35418701171875,112252.229849375,1.212614417076111,1.448318600654602,2.189118385314941,112252.238253375,409.4816284179688,-84.29681396484375,-367.8787841796875,112252.239867375,1.435379766320267,-1.26752526369505,-1.053140463266357,0.7758693695068359,0.2573567926883698,1.487832546234131,-0.05790430307388306,-0.1597529649734497,0.06831429898738861,XArbitraryCorrectedZVertical,0.03161139621109145,-0.6520043144401505,0.6823473775435562,0.329079407459818,-0.4722622931003571,0.8689815402030945,-0.1477821916341782,-39.01193237304688,31.96714019775391,2.08642578125,-1,2,112247.9873875,unknown,2,2025-04-20T10:22:11.301-04:00,null,0,0,0,0,0,0,0,null,112250.652499,0,-0.2061005,101.7001,1745158932.803586,0.0.0.0,100.94.214.186,my_iOS_device,0,5,1745158932.768089,1,0.6,0
2025-04-20T10:22:15.606-04:00,95,1745158934.999814,40.31642468292142,-74.75843734508713,65.54723,0.04236664,1.085592,-1,-1,3,6.391705927628528,-9999,1745158935.594291,-38.02304077148438,33.11116790771484,2.214813232421875,81.34642028808594,93.53807830810547,11.11362266540527,112252.284947375,-0.6700592041015625,0.5848236083984375,-0.4266357421875,112252.259902375,-0.05713332816958427,-0.5509499907493591,0.282503604888916,112252.268487375,410.2598876953125,-83.47145080566406,-367.943359375,112252.274929375,1.455194237274408,-1.265095504638076,-1.071042613909917,-0.3614074289798737,-0.481810599565506,0.4015723168849945,-0.2323853671550751,-0.3657835125923157,-0.3652827143669128,XArbitraryCorrectedZVertical,0.03080541444291528,-0.6534058684041844,0.6865958633977685,0.3173292987580621,-0.4569914042949677,0.8777006268501282,-0.1442236006259918,-38.0740966796875,33.00119781494141,1.7037353515625,-1,2,112247.9873875,unknown,2,2025-04-20T10:22:11.301-04:00,null,0,0,0,0,0,0,0,null,112250.652499,0,-0.2061005,101.7001,1745158932.803586,0.0.0.0,100.94.214.186,my_iOS_device,0,5,1745158932.768089,1,0.6,0
2025-04-20T10:22:15.624-04:00,96,1745158934.999814,40.31642468292142,-74.75843734508713,65.54723,0.04236664,1.085592,-1,-1,3,6.391705927628528,-9999,1745158935.615459,-37.454833984375,33.61167144775391,2.80877685546875,80.18244171142578,92.37409973144531,11.11360454559326,112252.315000375,-0.547119140625,0.7547760009765625,-0.224884033203125,112252.289956375,-0.6764663457870483,-0.2880315184593201,0.8103479743003845,112252.298721375,411.0387268066406,-82.79513549804688,-366.68359375,112252.309991375,1.426953092539797,-1.307112926928913,-1.107647998944583,-0.8347412943840027,-0.9100458025932312,1.418050050735474,-0.1914471983909607,-0.2051514983177185,-0.1415510773658752,XArbitraryCorrectedZVertical,0.02272894935444347,-0.664274874683659,0.6837118553708567,0.3012644590800327,-0.4313249289989471,0.8946503400802612,-0.1164445728063583,-36.97872924804688,34.07228088378906,2.912811279296875,-1,2,112247.9873875,unknown,2,2025-04-20T10:22:11.301-04:00,null,0,0,0,0,0,0,0,null,112250.652499,0,-0.2061005,101.7001,1745158932.803586,0.0.0.0,100.94.214.186,my_iOS_device,0,5,1745158932.768089,1,0.6,0
2025-04-20T10:22:15.654-04:00,97,1745158934.999814,40.31642468292142,-74.75843734508713,65.54723,0.04236664,1.085592,-1,-1,3,6.391705927628528,-9999,1745158935.634293,-36.50714111328125,34.59658050537109,3.562652587890625,77.85575103759766,90.04740905761719,11.11360454559326,112252.345053375,-0.5341339111328125,1.030609130859375,0.0695037841796875,112252.320009375,-0.8107543587684631,-1.269957065582275,1.494309544563293,112252.328955375,412.5275573730469,-81.37565612792969,-365.2850646972656,112252.309991375,1.426953092539797,-1.307112926928913,-1.107647998944583,-0.8347412943840027,-0.9100458025932312,1.418050050735474,-0.1914471983909607,-0.2051514983177185,-0.1415510773658752,XArbitraryCorrectedZVertical,0.02272894935444347,-0.664274874683659,0.6837118553708567,0.3012644590800327,-0.4313249289989471,0.8946503400802612,-0.1164445728063583,-36.97872924804688,34.07228088378906,2.912811279296875,-1,2,112247.9873875,unknown,2,2025-04-20T10:22:11.301-04:00,null,0,0,0,0,0,0,0,null,112250.652499,0,-0.2061005,101.7001,1745158932.803586,0.0.0.0,100.94.214.186,my_iOS_device,0,5,1745158932.768089,1,0.6,0
2025-04-20T10:22:15.684-04:00,98,1745158934.999814,40.31642468292142,-74.75843734508713,65.54723,0.04236664,1.085592,-1,-1,3,6.391705927628528,-9999,1745158935.674481,-34.46221923828125,36.24134826660156,7.003448486328125,72.00569152832031,84.19734954833984,11.11362171173096,112252.375107375,-0.49334716796875,0.939910888671875,0.135040283203125,112252.350062375,-0.6930605173110962,-2.203513383865356,1.099127054214478,112252.359191375,414.091552734375,-80.09922790527344,-362.3304748535156,112252.345053375,1.385221640951999,-1.397651964598797,-1.159565514014073,-0.8019537329673767,-2.080392599105835,1.128233909606934,-0.1403732895851135,0.1139794588088989,0.1383706331253052,XArbitraryCorrectedZVertical,0.0208769101181887,-0.6820048885505449,0.6802103394496213,0.2678566564522083,-0.393760472536087,0.9166294932365417,-0.06886697560548782,-35.496337890625,35.50212860107422,5.015411376953125,-1,2,112247.9873875,unknown,2,2025-04-20T10:22:11.301-04:00,null,0,0,0,0,0,0,0,null,112250.652499,0,-0.2061005,101.7001,1745158932.803586,0.0.0.0,100.94.214.186,my_iOS_device,0,5,1745158932.768089,1,0.6,0
2025-04-20T10:22:15.723-04:00,99,1745158934.999814,40.31642468292142,-74.75843734508713,65.54723,0.04236664,1.085592,-1,-1,3,6.391705927628528,-9999,1745158935.714596,-33.35501098632812,36.63633728027344,9.817596435546875,69.28700256347656,81.47866058349609,11.1135835647583,112252.405160375,-0.289764404296875,1.121109008789062,0.1758575439453125,112252.380115375,-0.7241483926773071,-1.444972395896912,0.4414058923721313,112252.389428375,414.9297485351562,-79.74089050292969,-360.2880554199219,112252.380115375,1.336589436782036,-1.512812773509195,-1.193118229465526,-0.721688449382782,-1.446158170700073,0.4422429800033569,-0.1252040863037109,0.0103873610496521,0.1564103364944458,XArbitraryCorrectedZVertical,0.03111452781480744,-0.698818137734576,0.6754570345637739,0.233329610600734,-0.3681429922580719,0.9295233488082886,-0.02137019298970699,-33.82534790039062,36.75306701660156,8.6741943359375,-1,2,112247.9873875,unknown,2,2025-04-20T10:22:11.301-04:00,null,0,0,0,0,0,0,0,null,112250.652499,0,-0.2061005,101.7001,1745158932.803586,0.0.0.0,100.94.214.186,my_iOS_device,0,5,1745158932.768089,1,0.6,0
2025-04-20T10:22:15.744-04:00,100,1745158934.999814,40.31642468292142,-74.75843734508713,65.54723,0.04236664,1.085592,-1,-1,3,6.391705927628528,-9999,1745158935.734598,-33.00921630859375,36.41197967529297,10.66793823242188,69.52870178222656,81.72035980224609,11.11354541778564,112252.435213375,-0.5640716552734375,1.048065185546875,0.208526611328125,112252.410169375,-0.9534063339233398,-0.3458636701107025,0.02519376948475838,112252.419662375,415.3572998046875,-80.17704772949219,-358.8564453125,112252.415178375,1.254711179179029,-1.615087146657581,-1.196903392616209,-0.864540696144104,-0.2006159722805023,-0.06865046173334122,0.09779396653175354,0.2643998861312866,0.1543300151824951,XArbitraryCorrectedZVertical,0.03516568691704732,-0.7119333970300658,0.6648278005322488,0.2234236113147292,-0.3648837208747864,0.9309125542640686,0.01617157459259033,-33.21902465820312,36.71745300292969,10.2646484375,-1,2,112247.9873875,unknown,2,2025-04-20T10:22:11.301-04:00,null,0,0,0,0,0,0,0,null,112250.652499,0,-0.2061005,101.7001,1745158932.803586,0.0.0.0,100.94.214.186,my_iOS_device,0,5,1745158932.768089,1,0.6,0
2025-04-20T10:22:15.775-04:00,101,1745158934.999814,40.31642468292142,-74.75843734508713,65.54723,0.04236664,1.085592,-1,-1,3,6.391705927628528,-9999,1745158935.75461,-33.41458129882812,36.0162353515625,11.46969604492188,70.86156463623047,83.05322265625,11.11350154876709,112252.465266375,-0.652984619140625,0.8181915283203125,0.20526123046875,112252.440222375,-0.5418395400047302,0.5249795913696289,-0.6913012266159058,112252.449896375,414.201171875,-80.99632263183594,-357.640869140625,112252.450240375,1.196656775478185,-1.658470019630981,-1.17850087620471,-0.356071412563324,0.7677515149116516,-0.85832679271698,-0.2831439673900604,0.07541686296463013,0.08787739276885986,XArbitraryCorrectedZVertical,0.0351525580508511,-0.7179847684350583,0.6549064333462482,0.2331518459478489,-0.3808422088623047,0.9240339398384094,0.03347565978765488,-33.8919677734375,35.62630462646484,11.88052368164062,-1,2,112247.9873875,unknown,2,2025-04-20T10:22:11.301-04:00,null,0,0,0,0,0,0,0,null,112250.652499,0,-0.2061005,101.7001,1745158932.803586,0.0.0.0,100.94.214.186,my_iOS_device,0,5,1745158932.768089,1,0.6,0
2025-04-20T10:22:15.806-04:00,102,1745158934.999814,40.31642468292142,-74.75843734508713,65.54723,0.04236664,1.085592,-1,-1,3,6.391705927628528,-9999,1745158935.794755,-35.25506591796875,34.41231536865234,10.78549194335938,76.10906219482422,88.30072021484375,11.11342525482178,112252.495320375,-0.8419647216796875,0.59967041015625,-0.1377716064453125,112252.470275375,-0.3489039242267609,1.028841733932495,-1.329396486282349,112252.480132375,412.8819580078125,-82.26727294921875,-359.1497192382812,112252.485302375,1.177533805332338,-1.641638886143357,-1.131485660611534,-0.2029012739658356,1.072923183441162,-2.067074537277222,-0.3493870496749878,-0.2786718010902405,-0.0395810604095459,XArbitraryCorrectedZVertical,0.03917164532556485,-0.7166018458338318,0.6457354587125097,0.2607163981030398,-0.4242487549781799,0.9050450921058655,0.03010524623095989,-35.25506591796875,34.41231536865234,10.78549194335938,-1,2,112247.9873875,unknown,2,2025-04-20T10:22:11.301-04:00,null,0,0,0,0,0,0,0,null,112250.652499,0,-0.2061005,101.7001,1745158932.803586,0.0.0.0,100.94.214.186,my_iOS_device,0,5,1745158932.768089,1,0.6,0
2025-04-20T10:22:15.843-04:00,103,1745158934.999814,40.31642468292142,-74.75843734508713,65.54723,0.04236664,1.085592,-1,-1,3,6.391705927628528,-9999,1745158935.834674,-38.64608764648438,30.34591674804688,9.579833984375,83.82118988037109,96.01284790039062,11.11344814300537,112252.525373375,0.0764312744140625,0.9732818603515625,-0.2170257568359375,112252.500329375,-0.1179034635424614,0.9042776823043823,-3.166498422622681,112252.510371375,410.2809448242188,-85.386962890625,-359.9095764160156,112252.520364375,1.190291443721022,-1.604692586757463,-1.029785568980213,0.3933226466178894,-0.2218415886163712,-2.746918201446533,0.1057255268096924,-0.0451311469078064,-0.3720982074737549,XArbitraryCorrectedZVertical,0.06741226282469587,-0.710057917216473,0.6323150842440649,0.3024085339035144,-0.5147067308425903,0.8571885824203491,0.01745331846177578,-38.64608764648438,30.34591674804688,9.579833984375,-1,2,112247.9873875,unknown,2,2025-04-20T10:22:11.301-04:00,null,0,0,0,0,0,0,0,null,112250.652499,0,-0.2061005,101.7001,1745158932.803586,0.0.0.0,100.94.214.186,my_iOS_device,0,5,1745158932.768089,1,0.6,0
2025-04-20T10:22:15.864-04:00,104,1745158934.999814,40.31642468292142,-74.75843734508713,65.54723,0.04236664,1.085592,-1,-1,3,6.391705927628528,-9999,1745158935.854728,-39.6448974609375,28.50372314453125,10.0059814453125,84.40771484375,96.59937286376953,11.11344146728516,112252.555426375,-0.0150299072265625,0.9184112548828125,-0.3675079345703125,112252.530382375,0.4060335159301758,-1.118171334266663,-2.14299464225769,112252.540610375,408.4715881347656,-88.18701171875,-359.58154296875,112252.520364375,1.190291443721022,-1.604692586757463,-1.029785568980213,0.3933226466178894,-0.2218415886163712,-2.746918201446533,0.1057255268096924,-0.0451311469078064,-0.3720982074737549,XArbitraryCorrectedZVertical,0.06741226282469587,-0.710057917216473,0.6323150842440649,0.3024085339035144,-0.5147067308425903,0.8571885824203491,0.01745331846177578,-38.64608764648438,30.34591674804688,9.579833984375,-1,2,112247.9873875,unknown,2,2025-04-20T10:22:11.301-04:00,null,0,0,0,0,0,0,0,null,112250.652499,0,-0.2061005,101.7001,1745158932.803586,0.0.0.0,100.94.214.186,my_iOS_device,0,5,1745158932.768089,1,0.6,0
2025-04-20T10:22:15.894-04:00,105,1745158934.999814,40.31642468292142,-74.75843734508713,65.54723,0.04236664,1.085592,-1,-1,3,6.391705927628528,-9999,1745158935.874899,-39.803955078125,27.65087127685547,11.0836181640625,83.65756988525391,95.84922790527344,11.11343383789062,112252.585480375,-0.099395751953125,0.8588104248046875,0.0708465576171875,112252.560435375,0.5879713892936707,-1.465486645698547,-0.8320783376693726,112252.570841375,408.506103515625,-89.01319885253906,-357.9270629882812,112252.555426375,1.224219251938554,-1.619595799810818,-0.9694314615529909,0.5792732238769531,-1.49712336063385,-0.9499737024307251,0.5500649809837341,0.09384697675704956,-0.395106315612793,XArbitraryCorrectedZVertical,0.1051606894236198,-0.7090418516626232,0.6267782933380028,0.3055319350366366,-0.5650947093963623,0.8245641589164734,0.02759823575615883,-39.82620239257812,28.0087890625,10.51791381835938,-1,2,112247.9873875,unknown,2,2025-04-20T10:22:11.301-04:00,null,0,0,0,0,0,0,0,null,112250.652499,0,-0.2061005,101.7001,1745158932.803586,0.0.0.0,100.94.214.186,my_iOS_device,0,5,1745158932.768089,1,0.6,0
2025-04-20T10:22:15.928-04:00,106,1745158934.999814,40.31642468292142,-74.75843734508713,65.54723,0.04236664,1.085592,-1,-1,3,6.391705927628528,-9999,1745158935.914981,-39.5648193359375,27.47048187255859,12.77359008789062,81.13330078125,93.32495880126953,11.11340713500977,112252.615533625,-0.3599090576171875,0.7168731689453125,0.4405364990234375,112252.590489375,0.1522318720817566,-0.7573758363723755,0.3762532472610474,112252.601074375,408.7919921875,-88.93925476074219,-356.831787109375,112252.590489375,1.252946433675701,-1.642496086519668,-0.9580149759833314,0.1546823978424072,-0.7585670948028564,0.3770827054977417,0.4742715954780579,0.04075890779495239,0.02964401245117188,XArbitraryCorrectedZVertical,0.1264793924527333,-0.7103549682140033,0.6277972625013819,0.2920092487060429,-0.5736672878265381,0.8180515170097351,0.04120243340730667,-39.70584106445312,27.37892150878906,12.52371215820312,-1,2,112247.9873875,unknown,2,2025-04-20T10:22:11.301-04:00,null,0,0,0,0,0,0,0,null,112250.652499,0,-0.2061005,101.7001,1745158932.803586,0.0.0.0,100.94.214.186,my_iOS_device,0,5,1745158932.768089,1,0.6,0
